"Time (s)","Linear Acceleration x (m/s^2)","Linear Acceleration y (m/s^2)","Linear Acceleration z (m/s^2)"
4.077569600E-2,4.605317116E-2,-7.156777382E-2,-1.033878326E-2
4.576012300E-2,8.484840393E-3,-4.707479477E-2,-1.323518753E-1
5.074455000E-2,1.106545925E-1,-4.887604713E-2,-8.947467804E-2
5.572897700E-2,1.124658585E-1,-1.906085014E-2,-1.258277893E-1
6.071340400E-2,2.368187904E-2,8.821964264E-3,-1.249828339E-1
6.569783100E-2,-3.024411201E-2,-8.487701416E-3,-5.343151093E-2
7.068225800E-2,-1.522041559E-1,9.208202362E-3,-6.678104401E-2
7.566668500E-2,-1.348768473E-1,-9.510517120E-4,-4.104137421E-2
8.065111200E-2,-2.876412868E-1,1.099588871E-1,-9.969043732E-2
8.563173700E-2,2.837014198E-2,-6.715011597E-2,5.090618134E-2
9.061236200E-2,-1.201691628E-1,-1.534318924E-2,-2.531337738E-2
9.559340400E-2,-2.649438381E-2,-1.005005836E-1,-1.130399704E-1
1.005750190E-1,2.881908417E-2,-1.265983582E-1,-1.640968323E-1
1.055572580E-1,5.931818485E-2,-1.288530827E-1,-2.705860138E-1
1.105401750E-1,2.456089258E-1,-2.293026447E-1,-3.180313110E-1
1.155238210E-1,1.983257532E-1,-2.601888180E-1,-4.137372971E-1
1.205081960E-1,9.689247608E-2,-2.341489792E-1,-3.884687424E-1
1.254933000E-1,7.497608662E-2,-1.584875584E-1,-2.482919693E-1
1.304790810E-1,1.549890041E-1,-9.006118774E-2,-1.208496094E-1
1.354654350E-1,1.861162782E-1,-4.200530052E-2,-2.193450928E-4
1.404522580E-1,1.525513530E-1,-2.678132057E-2,5.505752563E-2
1.454394460E-1,6.175529957E-2,-1.114749908E-2,1.306610107E-1
1.504268410E-1,1.672005653E-2,2.698731422E-2,1.346158981E-1
1.554143410E-1,-5.423903465E-2,-1.110551357E-1,-2.244071960E-1
1.604018410E-1,-1.396368742E-1,-9.137058258E-2,-2.804393768E-1
1.653863730E-1,1.357485652E-1,1.814081669E-1,1.311521530E-1
1.703708000E-1,1.291727424E-1,3.609652519E-1,2.751169205E-1
1.753552270E-1,-8.191460371E-2,3.716335297E-1,3.506822586E-1
1.803396540E-1,-3.585184216E-1,2.555682659E-1,4.019603729E-1
1.853240810E-1,-3.295115232E-1,8.586120605E-2,4.297828674E-1
1.903085080E-1,-2.094834447E-1,-1.064705849E-2,4.857215881E-1
1.952929350E-1,2.576583624E-2,-8.196592331E-3,4.991264343E-1
2.002773620E-1,2.338096499E-1,1.654005051E-2,3.641214371E-1
2.052617890E-1,3.146303296E-1,-6.652951241E-2,1.263723373E-1
2.102462160E-1,1.979193687E-1,-4.438042641E-2,-6.757450104E-2
2.152306440E-1,1.361344457E-1,1.067423820E-2,-2.379751205E-1
2.202150710E-1,1.652491689E-1,4.711079597E-2,-3.579301834E-1
2.251994980E-1,1.617686749E-1,5.650568008E-2,-3.123960495E-1
2.301839250E-1,6.500583887E-2,-1.191995144E-1,-5.256710052E-1
2.351683520E-1,-2.645613551E-1,-3.199882507E-1,-8.572797775E-1
2.401527790E-1,7.202082872E-2,5.735635757E-3,-1.874923706E-2
2.451372060E-1,3.799138069E-1,2.082717419E-1,3.978204727E-1
2.501216330E-1,4.381629229E-1,1.628425121E-1,6.696491241E-1
2.551060600E-1,2.885850072E-1,9.809255600E-3,8.051776886E-1
2.600904870E-1,2.409210503E-1,-7.152247429E-2,1.065509796E0
2.650749140E-1,3.129543364E-1,-1.541128159E-1,1.073751450E0
2.700593410E-1,3.088616431E-1,-2.006578445E-1,8.632450104E-1
2.750437690E-1,2.291661799E-1,-2.212097645E-1,7.008152008E-1
2.800281960E-1,1.453954428E-1,-2.766594887E-1,6.836271286E-1
2.850126230E-1,1.879778802E-1,-3.094244003E-1,6.536169052E-1
2.899970500E-1,2.561396360E-1,-2.161188126E-1,5.779523849E-1
2.949814770E-1,2.376188785E-1,-1.301710606E-1,4.056415558E-1
2.999659040E-1,1.339338422E-1,-7.896637917E-2,3.214120865E-1
3.049503310E-1,-3.998447955E-2,4.502534866E-3,2.528743744E-1
3.099347580E-1,-1.473464072E-2,3.068876266E-2,1.572628021E-1
3.149191850E-1,-8.992709219E-2,6.652832031E-2,4.439926147E-2
3.199036120E-1,-2.753691375E-2,8.383417130E-2,-1.278924942E-1
3.248880390E-1,-7.628351450E-3,6.410431862E-2,-2.598352432E-1
3.298724660E-1,-2.413375676E-2,1.269984245E-2,-3.239498138E-1
3.348568940E-1,-5.292790756E-2,-1.688504219E-1,-6.369361877E-1
3.398413210E-1,-1.687275916E-1,-2.419807911E-1,-8.749685287E-1
3.448257480E-1,2.467536740E-2,-5.318427086E-2,-3.276815414E-1
3.498101750E-1,1.287076324E-1,1.192028522E-1,-2.014446259E-2
3.547946020E-1,9.098988026E-2,1.287364960E-1,1.365680695E-1
3.597790290E-1,3.990649432E-2,7.658386230E-2,2.864093781E-1
3.647634560E-1,1.237813383E-1,6.216526031E-2,4.485759735E-1
3.697478830E-1,2.136416435E-1,2.757024765E-2,4.344768524E-1
3.747323100E-1,1.384510547E-1,-5.087018013E-2,3.317241669E-1
3.797167370E-1,-4.893559217E-2,-6.848788261E-2,2.689075470E-1
3.847011640E-1,1.714796722E-1,1.667404175E-2,1.603517532E-1
3.896855910E-1,2.703490853E-1,6.686592102E-2,2.533340454E-2
3.946700190E-1,2.508013248E-1,5.010104179E-2,-1.785840988E-1
3.996544460E-1,1.667154431E-1,-2.732610703E-2,-4.649715424E-1
4.046388730E-1,1.246593893E-1,-1.443226337E-1,-8.852100372E-1
4.096233000E-1,3.338228166E-1,-7.306170464E-2,-5.637273788E-1
4.146077270E-1,5.110446215E-1,1.549780369E-1,-4.740743637E-1
4.195921540E-1,3.721819520E-1,2.254781723E-1,-4.523658752E-1
4.245765810E-1,9.468752146E-2,1.685831547E-1,-3.321313858E-1
4.295610080E-1,-1.077294052E-1,9.415435791E-2,-4.344463348E-2
4.345454350E-1,-9.016984701E-2,1.195755005E-1,2.985954285E-1
4.395298620E-1,8.413633704E-2,2.761538029E-1,6.510305405E-1
4.445142890E-1,2.931860089E-2,3.533306122E-1,8.911762238E-1
4.494987160E-1,8.251965046E-2,3.329055309E-1,9.401540756E-1
4.544831440E-1,9.035345912E-2,2.253792286E-1,9.706497192E-1
4.594675710E-1,7.206305861E-2,1.167197227E-1,1.091825485E0
4.644519980E-1,1.600784063E-1,7.795619965E-2,9.145488739E-1
4.694364250E-1,-3.714203835E-3,-3.313300610E-1,5.509529114E-1
4.744208520E-1,9.730005264E-2,-4.485492706E-1,4.717855453E-1
4.794052790E-1,6.148374081E-2,-2.627847195E-1,9.104585648E-1
4.843897060E-1,-3.896879554E-1,-1.662983894E-1,1.392838478E0
4.893741330E-1,-6.107681394E-1,-1.543467045E-1,1.653921127E0
4.943585600E-1,-3.468294740E-1,-1.175484657E-1,1.170464516E0
4.993429870E-1,-2.142985463E-1,-1.024188995E-1,4.802131653E-1
5.043274140E-1,-2.243790030E-1,-6.042957306E-2,-3.619480133E-2
5.093118410E-1,-4.362679124E-1,6.589102745E-2,-3.479108810E-1
5.142962690E-1,-3.355464339E-1,3.097853661E-1,-8.318967819E-1
5.192806960E-1,-7.012093663E-1,5.668513775E-1,-6.670894623E-1
5.242651230E-1,-9.079366922E-1,7.036998272E-1,-2.574348450E-2
5.292495500E-1,-6.161731482E-1,8.914458752E-1,-2.685699463E-1
5.342339770E-1,-5.303554535E-1,9.736716747E-1,-8.842592239E-1
5.392184040E-1,-3.715671897E-1,9.611697197E-1,-5.936307907E-1
5.442028310E-1,1.895666122E-2,8.302204609E-1,-3.058681488E-1
5.491872580E-1,2.735445499E-1,6.863150597E-1,-1.773605347E-1
5.541716850E-1,4.215341806E-1,5.342161655E-1,3.539657593E-2
5.591561120E-1,6.391927004E-1,4.357573986E-1,7.549858093E-2
5.641405390E-1,8.073018789E-1,4.289252758E-1,1.551818848E-2
5.691249660E-1,9.027732611E-1,5.415546894E-1,3.180122375E-2
5.741093940E-1,8.073837757E-1,6.640477180E-1,1.376953125E-1
5.790938210E-1,5.429347754E-1,4.692518711E-1,-1.423606873E-1
5.840782480E-1,2.045904398E-1,2.032167912E-1,-4.730815887E-1
5.890626750E-1,5.280939341E-1,-1.444172859E-2,-6.880693436E-1
5.940471020E-1,6.018891335E-1,-1.227202415E-1,-7.836456299E-1
5.990315290E-1,6.572409868E-1,-4.175662994E-1,-9.648847580E-1
6.040159560E-1,6.620079279E-1,-2.999212742E-1,-1.045851707E0
6.090003830E-1,6.241875887E-1,-1.589641571E-1,-9.277477264E-1
6.139848100E-1,4.402945042E-1,-8.152890205E-2,-6.736326218E-1
6.189692370E-1,1.679015160E-1,3.114724159E-2,-3.362092972E-1
6.239536640E-1,-4.989206791E-2,4.488658905E-2,-1.341829300E-1
6.289380910E-1,-2.994304895E-1,8.342504501E-2,-1.373500824E-1
6.339225190E-1,-5.673074126E-1,1.521778107E-1,-3.109245300E-1
6.389069460E-1,-6.540952325E-1,2.327549458E-1,-4.306011200E-1
6.438913730E-1,-7.850770354E-1,3.497390747E-1,-4.020900726E-1
6.488758000E-1,-7.760058045E-1,4.558284283E-1,-4.355373383E-1
6.538602270E-1,-6.905314922E-1,5.427892208E-1,-5.687818527E-1
6.588446540E-1,-6.864420772E-1,5.590748787E-1,-6.016845703E-1
6.638290810E-1,-7.017368674E-1,5.575804710E-1,-7.060432434E-1
6.688135080E-1,-6.033530235E-1,5.012006760E-1,-7.390747070E-1
6.737979350E-1,-4.535881877E-1,3.851802349E-1,-6.679649353E-1
6.787823620E-1,-3.469939828E-1,3.192150593E-1,-7.929601669E-1
6.837667890E-1,-3.170041442E-1,2.367653847E-1,-7.467660904E-1
6.887512160E-1,-3.352668881E-1,2.327766418E-1,-5.162391663E-1
6.937356440E-1,-2.975625396E-1,2.447457314E-1,-3.972482681E-1
6.987200710E-1,-2.385761142E-1,1.586568356E-1,-3.603801727E-1
7.037044980E-1,-1.921022534E-1,1.080768108E-1,-2.290334702E-1
7.086889250E-1,-1.199540496E-1,4.467296600E-2,-7.023715973E-2
7.136733520E-1,-6.427443027E-2,6.397008896E-3,-1.361465454E-1
7.186577790E-1,-7.747972012E-2,-1.177263260E-2,-8.281421661E-2
7.236422060E-1,-9.741669893E-2,-4.368329048E-2,1.841697693E-1
7.286266330E-1,-1.147852540E-1,-4.684138298E-2,3.592157364E-1
7.336110600E-1,-1.015757918E-1,-8.830618858E-2,3.956222534E-1
7.385954870E-1,-1.059437394E-1,-3.941082954E-2,4.465541840E-1
7.435799140E-1,-6.172716618E-2,1.828026772E-2,6.071205139E-1
7.485643410E-1,-2.153539658E-2,7.510805130E-2,6.531219482E-1
7.535487690E-1,-7.544994354E-2,9.322738647E-2,4.806480408E-1
7.585331960E-1,-4.171192646E-2,4.508090019E-2,2.906093597E-1
7.635176230E-1,6.599628925E-2,3.036737442E-3,2.568817139E-2
7.685020500E-1,1.058973074E-1,-3.770852089E-2,-5.696868896E-2
7.734864770E-1,2.219499350E-1,3.536701202E-3,-4.424381256E-2
7.784709040E-1,3.237504959E-1,6.886863708E-2,-1.317434311E-1
7.834553310E-1,3.546605110E-1,6.804537773E-2,-1.952915192E-1
7.884397580E-1,3.441640139E-1,8.230423927E-2,-2.017984390E-1
7.934241850E-1,2.883675098E-1,6.859612465E-2,-1.849746704E-1
7.984086120E-1,1.741820574E-1,1.172118187E-1,-1.164608002E-1
8.033930390E-1,1.593909264E-1,1.417737007E-1,-6.789398193E-2
8.083774660E-1,1.530437469E-1,2.130999565E-1,-3.415012360E-2
8.133618940E-1,1.548697948E-1,2.641091347E-1,8.741378784E-3
8.183463210E-1,6.959795952E-3,3.847045898E-1,1.086502075E-1
8.233307480E-1,-3.362679482E-2,4.028432369E-1,2.892398834E-1
8.283151750E-1,-1.450657845E-2,4.044148922E-1,3.121461868E-1
8.332996020E-1,1.105058193E-2,3.419797421E-1,2.593097687E-1
8.382840290E-1,6.565666199E-2,3.160507679E-1,3.454332352E-1
8.432684560E-1,8.281278610E-2,2.881743908E-1,4.697437286E-1
8.482528830E-1,4.869580269E-2,3.198988438E-1,4.417371750E-1
8.532373100E-1,-7.923007011E-3,3.066997528E-1,3.145112991E-1
8.582217370E-1,-8.282697201E-2,2.492439747E-1,2.075977325E-1
8.632061640E-1,-4.275715351E-2,2.192699909E-1,1.494169235E-1
8.681905910E-1,-3.078794479E-2,2.076001167E-1,1.092147827E-2
8.731750190E-1,-3.607153893E-3,1.718108654E-1,-1.267232895E-1
8.781594460E-1,1.072096825E-2,1.930899620E-1,-1.779680252E-1
8.831438730E-1,6.937873363E-2,2.474033833E-1,-3.004379272E-1
8.881283000E-1,-1.373338699E-2,2.206113338E-1,-3.414688110E-1
8.931127270E-1,-1.468820572E-1,1.467664242E-1,-4.349794388E-1
8.980971540E-1,-1.402959228E-1,1.308915615E-1,-3.758335114E-1
9.030815810E-1,-1.815654635E-1,7.262206078E-2,-2.266368866E-1
9.080660080E-1,-2.889375091E-1,7.158303261E-2,6.939888000E-2
9.130504350E-1,-2.098532319E-1,1.844899654E-1,-5.508041382E-2
9.180348620E-1,-2.461296916E-1,2.777354717E-1,-1.168422699E-1
9.230192890E-1,-2.591678500E-1,3.564338684E-1,-1.401271820E-1
9.280037160E-1,-1.780290008E-1,3.685414791E-1,-1.728248596E-1
9.329881440E-1,-2.268136144E-1,3.719186783E-1,-1.198081970E-1
9.379725710E-1,-2.618026733E-1,3.575413227E-1,-3.411674500E-2
9.429569980E-1,-2.537508011E-1,3.721730709E-1,8.853054047E-2
9.479414250E-1,-1.979466677E-1,3.975942135E-1,2.001304626E-1
9.529258520E-1,-2.281445265E-2,3.672993183E-1,2.721881866E-1
9.579102790E-1,1.799733639E-1,3.244471550E-1,3.430843353E-1
9.628947060E-1,3.008221984E-1,2.879023552E-1,4.556684494E-1
9.678791330E-1,3.736571074E-1,2.525548935E-1,6.002120972E-1
9.728635600E-1,4.228783250E-1,2.040431499E-1,7.337331772E-1
9.778479870E-1,5.009476542E-1,1.470658779E-1,8.753786087E-1
9.828324140E-1,5.365874171E-1,7.199835777E-2,9.539136887E-1
9.878168410E-1,5.544184446E-1,1.218867302E-2,9.650926590E-1
9.928012690E-1,5.357421041E-1,-4.207086563E-2,9.807348251E-1
9.977856960E-1,4.996931553E-1,-6.251549721E-2,1.043630600E0
1.002770123E0,4.417621493E-1,-9.713387489E-2,1.049004555E0
1.007754550E0,3.667199612E-1,-1.503608227E-1,9.545555115E-1
1.012738977E0,2.888223529E-1,-1.650073528E-1,8.893299103E-1
1.017723404E0,2.134960890E-1,-1.935765743E-1,8.720264435E-1
1.022707831E0,1.268383265E-1,-2.027120590E-1,9.022464752E-1
1.027692258E0,3.307378292E-2,-2.307126522E-1,9.179801941E-1
1.032676685E0,-5.465996265E-2,-2.774608135E-1,9.099569321E-1
1.037661112E0,-1.321566105E-1,-3.286087513E-1,8.641834259E-1
1.042645539E0,-2.286236584E-1,-3.839125633E-1,8.379201889E-1
1.047629966E0,-3.063458204E-1,-4.196918011E-1,9.165248871E-1
1.052614394E0,-3.184554279E-1,-4.552028179E-1,9.377202988E-1
1.057598821E0,-4.053111970E-1,-5.241785049E-1,8.832263947E-1
1.062583803E0,-5.216810703E-1,-5.764746666E-1,8.517599106E-1
1.067566719E0,-5.708972216E-1,-5.586013794E-1,1.016619682E0
1.072551146E0,-5.336019993E-1,-5.243525505E-1,1.157956123E0
1.077535573E0,-4.703254998E-1,-6.030199528E-1,1.180674553E0
1.082520000E0,-4.028971493E-1,-6.419222355E-1,1.209290504E0
1.087504427E0,-3.788766265E-1,-6.276507378E-1,1.158225060E0
1.092488854E0,-3.643535078E-1,-5.937669277E-1,1.046894073E0
1.097473281E0,-3.781693578E-1,-5.590801239E-1,8.897647858E-1
1.102457708E0,-4.443122745E-1,-5.612773895E-1,6.773834229E-1
1.107442135E0,-5.205172896E-1,-5.661230087E-1,3.716640472E-1
1.112426563E0,-5.552273989E-1,-5.393822193E-1,9.191894531E-2
1.117410990E0,-5.064777136E-1,-4.995536804E-1,-1.240787506E-1
1.122395417E0,-4.469486475E-1,-4.605267048E-1,-2.624797821E-1
1.127379844E0,-3.865828216E-1,-4.648284912E-1,-3.189973831E-1
1.132364271E0,-3.066995144E-1,-5.405495167E-1,-3.989801407E-1
1.137348698E0,-3.585938811E-1,-4.963352680E-1,-5.692148209E-1
1.142333125E0,-4.829600453E-1,-4.756698608E-1,-6.529779434E-1
1.147317552E0,-5.588443279E-1,-4.687139988E-1,-7.556343079E-1
1.152301979E0,-5.859848261E-1,-5.135967731E-1,-8.437299728E-1
1.157286406E0,-5.836958289E-1,-5.765283108E-1,-8.411369324E-1
1.162270833E0,-5.244260430E-1,-6.334981918E-1,-8.197870255E-1
1.167255260E0,-4.947679043E-1,-6.655089855E-1,-8.417177200E-1
1.172239688E0,-5.044112206E-1,-6.821002960E-1,-8.543376923E-1
1.177224115E0,-5.054736733E-1,-6.737520695E-1,-8.195734024E-1
1.182208542E0,-4.361065030E-1,-6.503510475E-1,-7.423038483E-1
1.187192969E0,-3.681839406E-1,-6.406655312E-1,-6.798858643E-1
1.192177396E0,-2.826173902E-1,-6.640062332E-1,-6.130647659E-1
1.197158073E0,-2.474528998E-1,-6.963269711E-1,-5.942974091E-1
1.202138750E0,-2.478202879E-1,-6.757605076E-1,-5.804090500E-1
1.207119844E0,-2.876287401E-1,-6.551721096E-1,-6.046915054E-1
1.212101458E0,-2.272588611E-1,-6.251211166E-1,-6.574392319E-1
1.217083698E0,-1.566520631E-1,-6.141676903E-1,-7.338361740E-1
1.222066615E0,-8.919683099E-2,-6.126103401E-1,-7.766361237E-1
1.227050260E0,-4.835885763E-2,-5.964417458E-1,-7.240638733E-1
1.232034635E0,-1.015931368E-3,-5.564022064E-1,-4.953584671E-1
1.237019740E0,9.238362312E-3,-5.215590000E-1,-3.152008057E-1
1.242005521E0,1.050114632E-3,-5.396807194E-1,-2.786960602E-1
1.246991875E0,-3.540134430E-2,-5.819795132E-1,-3.184614182E-1
1.251978698E0,-8.597669005E-2,-5.766186714E-1,-3.388814926E-1
1.256965885E0,-1.565560400E-1,-5.948684216E-1,-4.117078781E-1
1.261953281E0,-1.802039146E-1,-6.078166962E-1,-4.605121613E-1
1.266940781E0,-2.282371819E-1,-6.055498123E-1,-5.332660675E-1
1.271928281E0,-2.382488251E-1,-5.832064152E-1,-6.061096191E-1
1.276912813E0,-2.671968639E-1,-5.691347122E-1,-6.935214996E-1
1.281897240E0,-2.762826383E-1,-5.678939819E-1,-7.860145569E-1
1.286881667E0,-2.985533476E-1,-5.793404579E-1,-8.264074326E-1
1.291866094E0,-3.149315715E-1,-5.650873184E-1,-8.340654373E-1
1.296850521E0,-3.258904219E-1,-5.347778797E-1,-7.947940826E-1
1.301834948E0,-3.326706886E-1,-4.788396358E-1,-6.992187500E-1
1.306819375E0,-3.358674645E-1,-4.546597004E-1,-6.047430038E-1
1.311803802E0,-3.162032664E-1,-4.287781715E-1,-5.924301147E-1
1.316788229E0,-2.682625949E-1,-4.153306484E-1,-5.475997925E-1
1.321772656E0,-2.248907089E-1,-3.666689396E-1,-4.751338959E-1
1.326757083E0,-2.185270786E-1,-3.021621704E-1,-3.226518631E-1
1.331741510E0,-1.863136888E-1,-2.555992603E-1,-1.428222656E-1
1.336725938E0,-1.232171655E-1,-2.270145416E-1,4.042911530E-2
1.341710365E0,-3.399813175E-2,-2.547628880E-1,2.605905533E-1
1.346694792E0,-4.156172276E-3,-2.199258804E-1,5.845165253E-1
1.351679219E0,-4.301303625E-2,-1.614906788E-1,8.737344742E-1
1.356663646E0,-1.360506117E-1,-1.754281521E-1,1.009326935E0
1.361648073E0,-2.068205476E-1,-2.238316536E-1,1.054116249E0
1.366632500E0,-2.986728847E-1,-2.782428265E-1,1.070602417E0
1.371616927E0,-3.835216761E-1,-3.007144928E-1,1.035172462E0
1.376601354E0,-5.479884744E-1,-3.248572350E-1,9.767236710E-1
1.381585781E0,-7.206770182E-1,-3.362424374E-1,8.905458450E-1
1.386570208E0,-8.974480629E-1,-3.491234779E-1,7.719593048E-1
1.391554635E0,-1.064501762E0,-3.537430763E-1,6.210145950E-1
1.396539063E0,-1.169927955E0,-3.545629978E-1,4.806461334E-1
1.401523490E0,-1.219167709E0,-3.608877659E-1,3.220939636E-1
1.406507917E0,-1.250820875E0,-3.484077454E-1,1.977272034E-1
1.411492344E0,-1.260493755E0,-3.215219975E-1,9.769916534E-2
1.416476771E0,-1.243571758E0,-2.990260124E-1,5.994510651E-2
1.421461198E0,-1.200196385E0,-2.709698677E-1,6.021881104E-2
1.426445625E0,-1.144450188E0,-2.706763744E-1,8.401489258E-2
1.431430052E0,-1.056848049E0,-2.741937637E-1,1.169214249E-1
1.436414479E0,-9.419176579E-1,-2.862803936E-1,2.209224701E-1
1.441398906E0,-8.328958750E-1,-2.927379608E-1,3.290195465E-1
1.446379583E0,-6.912618876E-1,-2.890141010E-1,4.746723175E-1
1.451360260E0,-5.117094517E-1,-2.897570133E-1,6.292266846E-1
1.456341354E0,-3.841900826E-1,-3.096652031E-1,7.498483658E-1
1.461322969E0,-2.692075074E-1,-3.347079754E-1,8.129119873E-1
1.466305208E0,-1.998067200E-1,-3.889765739E-1,8.234844208E-1
1.471288125E0,-1.855376959E-1,-4.295747280E-1,7.865896225E-1
1.476271771E0,-1.742944568E-1,-4.707708359E-1,7.453203201E-1
1.481256146E0,-2.000363171E-1,-4.646956921E-1,6.901044846E-1
1.486241250E0,-2.823503613E-1,-4.829924107E-1,5.923357010E-1
1.491227031E0,-3.260161877E-1,-4.967935085E-1,4.902839661E-1
1.496213385E0,-3.839049339E-1,-5.297312737E-1,4.077301025E-1
1.501200208E0,-4.321781397E-1,-5.530579090E-1,3.302698135E-1
1.506187396E0,-4.615111351E-1,-5.713813305E-1,2.768955231E-1
1.511174792E0,-5.102347732E-1,-5.894391537E-1,1.950101852E-1
1.516162292E0,-5.547362566E-1,-6.214463711E-1,1.419353485E-1
1.521149792E0,-6.287100315E-1,-6.433458328E-1,1.270608902E-1
1.526134271E0,-6.944114566E-1,-7.029364109E-1,1.264142990E-1
1.531118698E0,-6.760772467E-1,-7.427675724E-1,1.160650253E-1
1.536103125E0,-5.884658098E-1,-7.581784725E-1,8.174228668E-2
1.541087552E0,-4.602127969E-1,-7.157900333E-1,8.076858521E-2
1.546071979E0,-2.910172939E-1,-6.156935692E-1,9.867191315E-2
1.551056406E0,-1.279262304E-1,-5.154438019E-1,1.067838669E-1
1.556040833E0,2.939264476E-2,-4.223804474E-1,1.188268661E-1
1.561025260E0,1.665470600E-1,-3.580515385E-1,1.495532990E-1
1.566009688E0,3.077468574E-1,-3.414068222E-1,1.846370697E-1
1.570994115E0,4.436055720E-1,-3.010642529E-1,1.908998489E-1
1.575978542E0,5.174251795E-1,-2.894558907E-1,2.208108902E-1
1.580962969E0,5.297490358E-1,-2.827973366E-1,2.315168381E-1
1.585947396E0,4.478781819E-1,-3.001873493E-1,2.897109985E-1
1.590931823E0,4.015455544E-1,-3.131325245E-1,3.000993729E-1
1.595916250E0,5.133998990E-1,-3.170213699E-1,2.678737640E-1
1.600900677E0,5.437813997E-1,-3.451669216E-1,3.026113510E-1
1.605885104E0,4.457170665E-1,-3.689730167E-1,2.993249893E-1
1.610869531E0,3.438713253E-1,-3.884785175E-1,2.630805969E-1
1.615853958E0,2.524423897E-1,-3.420367241E-1,2.559022903E-1
1.620838385E0,1.522706002E-1,-3.203701973E-1,2.300453186E-1
1.625822813E0,7.201758027E-2,-2.947804928E-1,1.476755142E-1
1.630807240E0,3.497530147E-2,-3.080856800E-1,5.677032471E-2
1.635791667E0,-1.634662598E-2,-2.837412357E-1,-1.895141602E-2
1.640776094E0,-4.904901609E-2,-2.597560883E-1,-4.174041748E-2
1.645760521E0,-9.650006890E-2,-2.076356411E-1,-5.477428436E-2
1.650744948E0,-1.300080866E-1,-1.891970634E-1,-6.294155121E-2
1.655729375E0,-1.685181558E-1,-1.899631023E-1,-6.151866913E-2
1.660713802E0,-1.503255665E-1,-1.859805584E-1,-5.535221100E-2
1.665698229E0,-1.421974301E-1,-1.818912029E-1,-4.928970337E-2
1.670682656E0,-1.155774146E-1,-1.634979248E-1,-4.331111908E-2
1.675667083E0,-1.130826771E-1,-1.497669220E-1,-2.322769165E-2
1.680651510E0,-8.676427603E-2,-1.215679646E-1,1.555061340E-2
1.685635938E0,-1.175744459E-1,-1.264576912E-1,9.184360504E-2
1.690620365E0,-1.196794361E-1,-1.024301052E-1,2.053394318E-1
1.695606146E0,-8.878512681E-2,-9.740614891E-2,3.130664825E-1
1.700589375E0,-5.364987999E-2,-1.112747192E-1,3.818521500E-1
1.705572604E0,-1.408631448E-2,-1.299252510E-1,4.311294556E-1
1.710555885E0,1.561552286E-3,-1.297206879E-1,4.801101685E-1
1.715539271E0,3.627516702E-2,-1.490015984E-1,5.478677750E-1
1.720522813E0,4.228305072E-2,-1.545615196E-1,5.963325500E-1
1.725506510E0,6.271495670E-2,-1.752011776E-1,6.352396011E-1
1.730490417E0,6.430882961E-2,-2.108440399E-1,6.314477921E-1
1.735474531E0,3.763810918E-2,-2.519176006E-1,6.043272018E-1
1.740458854E0,2.128265565E-3,-2.841298580E-1,5.683174133E-1
1.745443385E0,-5.646776035E-2,-3.217027187E-1,4.854688644E-1
1.750428125E0,-9.985773265E-2,-3.501498699E-1,4.178276062E-1
1.755413073E0,-1.234274358E-1,-3.740489483E-1,3.461790085E-1
1.760398177E0,-1.416061074E-1,-4.025921822E-1,2.704229355E-1
1.765383385E0,-1.593144089E-1,-4.118003845E-1,2.047634125E-1
1.770368698E0,-2.050660253E-1,-4.016869068E-1,1.585550308E-1
1.775354063E0,-2.783337831E-1,-3.866565228E-1,7.940196991E-2
1.780339427E0,-3.217301369E-1,-3.714964390E-1,1.981544495E-2
1.785324688E0,-3.497792780E-1,-3.657510281E-1,-4.883861542E-2
1.790309115E0,-3.770704865E-1,-3.550448418E-1,-7.427215576E-2
1.795293542E0,-4.041261375E-1,-3.539071083E-1,-7.574462891E-2
1.800277969E0,-4.361737072E-1,-3.480122089E-1,-7.245540619E-2
1.805262396E0,-4.592948556E-1,-3.421983719E-1,-4.068470001E-2
1.810246823E0,-5.065870285E-1,-3.365645409E-1,-5.661010742E-2
1.815231250E0,-5.256240368E-1,-3.169140816E-1,-1.008186340E-1
1.820215677E0,-5.116190910E-1,-3.069608212E-1,-1.541366577E-1
1.825200104E0,-4.793848395E-1,-2.826867104E-1,-1.548404694E-1
1.830184531E0,-3.907445371E-1,-2.439656258E-1,-1.651926041E-1
1.835168958E0,-2.699591517E-1,-2.002174854E-1,-1.899433136E-1
1.840153385E0,-1.836779416E-1,-1.891775131E-1,-2.338390350E-1
1.845137813E0,-1.363717765E-1,-1.912870407E-1,-2.588520050E-1
1.850122240E0,-1.041687280E-1,-2.108948231E-1,-2.652606964E-1
1.855106667E0,-1.013847888E-1,-2.285714149E-1,-2.343473434E-1
1.860091094E0,-8.991616964E-2,-2.917740345E-1,-2.091808319E-1
1.865075521E0,-8.425033092E-2,-3.713972569E-1,-1.850595474E-1
1.870059948E0,-7.992564142E-2,-4.292266369E-1,-1.002836227E-1
1.875044375E0,-5.340687931E-2,-4.893867970E-1,9.220981598E-2
1.880028802E0,1.923744380E-2,-5.759916306E-1,2.349910736E-1
1.885013229E0,3.412406147E-2,-5.942866802E-1,3.476686478E-1
1.889997656E0,-1.727356017E-2,-5.690753460E-1,4.971809387E-1
1.894982083E0,-7.763801515E-2,-5.249528885E-1,6.264286041E-1
1.899966510E0,-1.425357759E-1,-4.670729637E-1,7.499160767E-1
1.904950938E0,-1.457140893E-1,-4.290835857E-1,8.393096924E-1
1.909935365E0,-1.447864026E-1,-3.540832996E-1,8.997325897E-1
1.914919792E0,-1.157738417E-1,-2.806620598E-1,9.172954559E-1
1.919904219E0,-9.645064175E-2,-1.899106503E-1,8.923931122E-1
1.924888646E0,-1.100792289E-1,-5.833005905E-2,8.254175186E-1
1.929873073E0,-1.038016528E-1,6.620407104E-2,7.262372971E-1
1.934857500E0,-7.774175704E-2,2.028424740E-1,6.045761108E-1
1.939841927E0,-5.612331629E-2,3.326876163E-1,4.985256195E-1
1.944826354E0,-3.914190084E-2,4.891376495E-1,3.794231415E-1
1.949810781E0,-3.232538700E-3,6.293363571E-1,2.568311691E-1
1.954795208E0,3.696590662E-2,7.536208630E-1,1.022081375E-1
1.959779635E0,9.077185392E-2,8.811242580E-1,4.402637482E-2
1.964764063E0,6.768304110E-2,8.600213528E-1,2.444171906E-2
1.969748490E0,1.011570692E-1,8.531990051E-1,9.816169739E-3
1.974732917E0,2.274204791E-1,9.362258911E-1,-6.627368927E-2
1.979717344E0,3.323408961E-1,1.070370197E0,-3.710842133E-2
1.984701771E0,4.736907184E-1,1.179087639E0,2.052307129E-2
1.989686198E0,5.048350692E-1,1.195864677E0,2.023696899E-3
1.994670625E0,5.036908984E-1,1.050386429E0,-8.727359772E-2
1.999655052E0,5.847286582E-1,9.151449203E-1,-1.946210861E-1
2.004639479E0,6.757629514E-1,8.520276546E-1,-2.487363815E-1
2.009623906E0,7.190541625E-1,7.894480228E-1,-2.454128265E-1
2.014608333E0,6.479698420E-1,7.132966518E-1,-2.706604004E-1
2.019592760E0,5.061795712E-1,5.810923576E-1,-3.385438919E-1
2.024577188E0,3.798426092E-1,4.266371727E-1,-3.727684021E-1
2.029561615E0,2.880443633E-1,2.929499149E-1,-3.451642990E-1
2.034546042E0,2.397810519E-1,1.512174606E-1,-2.704353333E-1
2.039530469E0,1.919932514E-1,1.410007477E-3,-2.296609879E-1
2.044514896E0,1.544680297E-1,-1.326625347E-1,-1.940689087E-1
2.049499323E0,1.322410256E-1,-2.465281487E-1,-1.588115692E-1
2.054483750E0,1.016473174E-1,-2.976174355E-1,-1.096420288E-1
2.059468177E0,9.102240950E-2,-3.578748703E-1,-7.983779907E-2
2.064452604E0,9.071291238E-2,-3.987324238E-1,-7.398986816E-2
2.069437031E0,9.113585204E-2,-4.346456528E-1,-1.013774872E-1
2.074421458E0,1.113965511E-1,-4.514591694E-1,-1.711978912E-1
2.079405885E0,1.134886891E-1,-4.635281563E-1,-2.451305389E-1
2.084390313E0,1.166641191E-1,-4.471001625E-1,-3.231582642E-1
2.089374740E0,1.109455824E-1,-4.355058670E-1,-4.053058624E-1
2.094359167E0,1.343840957E-1,-4.048159122E-1,-4.915933609E-1
2.099343594E0,1.627871245E-1,-3.740370274E-1,-5.440549850E-1
2.104328021E0,1.673754901E-1,-3.525698185E-1,-5.962505341E-1
2.109312448E0,1.860507429E-1,-3.402397633E-1,-6.339750290E-1
2.114296875E0,1.853966862E-1,-3.226282597E-1,-6.431417465E-1
2.119281302E0,1.940934211E-1,-2.996325493E-1,-6.003036499E-1
2.124265729E0,2.023031265E-1,-2.809910774E-1,-5.580511093E-1
2.129250156E0,1.817449927E-1,-2.810108662E-1,-5.448303223E-1
2.134234583E0,1.706276536E-1,-2.947885990E-1,-5.176630020E-1
2.139219010E0,1.785646379E-1,-2.938644886E-1,-4.908533096E-1
2.144203438E0,1.483877599E-1,-2.785084248E-1,-4.405965805E-1
2.149187865E0,9.942798316E-2,-2.677855492E-1,-3.623590469E-1
2.154172292E0,7.457052171E-2,-2.571525574E-1,-3.037624359E-1
2.159156719E0,3.091913462E-2,-2.515532970E-1,-3.025569916E-1
2.164141146E0,-7.897119969E-3,-2.510437965E-1,-2.964963913E-1
2.169125573E0,-2.305898815E-2,-2.319371700E-1,-3.235721588E-1
2.174110000E0,-3.851644322E-2,-1.991374493E-1,-3.692626953E-1
2.179094427E0,-5.006130785E-2,-1.527111530E-1,-3.954477310E-1
2.184078854E0,-4.359930009E-2,-7.847690582E-2,-4.355516434E-1
2.189063281E0,-3.356618807E-2,-3.354978561E-2,-4.942464828E-1
2.194047708E0,1.311044022E-2,3.469467163E-2,-5.429430008E-1
2.199032135E0,2.503339201E-2,6.937289238E-2,-5.628423691E-1
2.204016563E0,7.840973139E-2,1.231930256E-1,-5.922470093E-1
2.209000990E0,1.208040267E-1,1.771483421E-1,-5.599069595E-1
2.213985417E0,1.622015685E-1,2.264413834E-1,-4.900560379E-1
2.218969844E0,2.027155906E-1,2.570114136E-1,-4.305458069E-1
2.223954271E0,2.140937746E-1,2.736651897E-1,-3.527593613E-1
2.228938698E0,2.204664052E-1,2.669246197E-1,-2.473125458E-1
2.233923125E0,2.218367010E-1,2.701261044E-1,-1.523838043E-1
2.238907552E0,1.898327172E-1,2.592983246E-1,-3.933811188E-2
2.243891979E0,1.771104485E-1,2.344126701E-1,9.647941589E-2
2.248876406E0,1.885588467E-1,2.287290096E-1,1.979331970E-1
2.253860833E0,2.003004551E-1,2.087020874E-1,2.701129913E-1
2.258845260E0,1.745314002E-1,1.887941360E-1,3.464641571E-1
2.263829688E0,1.445947438E-1,1.641106606E-1,4.032649994E-1
2.268814115E0,1.199181080E-1,1.583862305E-1,4.359474182E-1
2.273798542E0,9.555655718E-2,1.573159695E-1,4.874105453E-1
2.278782969E0,8.573486656E-2,1.323215961E-1,5.242776871E-1
2.283767396E0,9.525723755E-2,1.262912750E-1,6.131649017E-1
2.288751823E0,1.289622784E-1,1.150310040E-1,6.777725220E-1
2.293736250E0,1.632486433E-1,1.173338890E-1,7.041454315E-1
2.298720677E0,1.650386602E-1,9.965133667E-2,6.974239349E-1
2.303705104E0,1.489970535E-1,8.569502831E-2,6.674499512E-1
2.308689531E0,1.438020170E-1,8.483076096E-2,5.859632492E-1
2.313673958E0,1.158617511E-1,8.275175095E-2,4.628734589E-1
2.318658385E0,1.124780923E-1,1.033563614E-1,2.794818878E-1
2.323642813E0,1.234289855E-1,1.420493126E-1,1.976156235E-1
2.328627240E0,1.625597030E-1,2.082238197E-1,1.546831131E-1
2.333611667E0,1.868939102E-1,2.542622089E-1,9.334278107E-2
2.338596094E0,1.635791361E-1,2.802348137E-1,9.036064148E-3
2.343580521E0,1.264554858E-1,2.767138481E-1,-6.001949310E-2
2.348564948E0,1.041602567E-1,2.726328373E-1,-1.567611694E-1
2.353549375E0,5.368755758E-2,2.490527630E-1,-2.334880829E-1
2.358533802E0,-1.086086407E-2,2.016344070E-1,-3.284463882E-1
2.363518229E0,-7.548944652E-2,1.783080101E-1,-4.273319244E-1
2.368502656E0,-1.448927820E-1,1.745171547E-1,-5.397596359E-1
2.373487083E0,-1.952469796E-1,1.666500568E-1,-6.277456284E-1
2.378471510E0,-2.217562497E-1,1.596844196E-1,-6.583318710E-1
2.383455938E0,-2.198602557E-1,1.443090439E-1,-6.653165817E-1
2.388440365E0,-2.180057466E-1,1.208829880E-1,-6.632566452E-1
2.393424792E0,-2.349629551E-1,9.431815147E-2,-6.522703171E-1
2.398409219E0,-2.277023494E-1,8.348655701E-2,-6.133823395E-1
2.403393646E0,-2.438248843E-1,8.345842361E-2,-5.230646133E-1
2.408378073E0,-2.214248925E-1,7.020592690E-2,-4.623937607E-1
2.413362500E0,-1.893250644E-1,5.323815346E-2,-4.025907516E-1
2.418346927E0,-1.665431857E-1,2.294254303E-2,-3.388423920E-1
2.423331354E0,-1.486221105E-1,7.580995560E-3,-2.425556183E-1
2.428315781E0,-1.406196803E-1,-7.506847382E-3,-1.566219330E-1
2.433300208E0,-1.093317047E-1,-4.151177406E-2,-9.987354279E-2
2.438284635E0,-1.073504165E-1,-7.072758675E-2,-3.400230408E-2
2.443269063E0,-1.200514138E-1,-1.096818447E-1,3.151321411E-2
2.448253490E0,-1.284240335E-1,-1.251025200E-1,9.669303894E-2
2.453237917E0,-1.369619071E-1,-1.504735947E-1,1.663055420E-1
2.458222344E0,-1.122004688E-1,-1.763608456E-1,2.261247635E-1
2.463206771E0,-1.065131798E-1,-1.978664398E-1,2.619295120E-1
2.468191198E0,-9.589043260E-2,-2.056751251E-1,2.692279816E-1
2.473175625E0,-1.513576806E-1,-2.234010696E-1,2.339172363E-1
2.478160052E0,-1.868582368E-1,-2.128279209E-1,2.037801743E-1
2.483144479E0,-2.074117810E-1,-1.929426193E-1,1.454410553E-1
2.488128906E0,-2.227071822E-1,-1.730773449E-1,1.017789841E-1
2.493113333E0,-2.187558413E-1,-1.768288612E-1,7.736206055E-2
2.498097760E0,-2.196846604E-1,-1.517188549E-1,3.877258301E-2
2.503082188E0,-2.256174386E-1,-1.358306408E-1,1.931190491E-2
2.508066615E0,-2.081779540E-1,-1.053938866E-1,6.157493591E-2
2.513051042E0,-1.863711625E-1,-7.971787453E-2,1.223869324E-1
2.518035469E0,-1.555630565E-1,-7.315444946E-2,1.826553345E-1
2.523019896E0,-1.394659579E-1,-4.300165176E-2,2.329616547E-1
2.528004323E0,-8.094546944E-2,-1.809334755E-2,2.639493942E-1
2.532988750E0,-3.239760548E-2,1.086878777E-2,2.806215286E-1
2.537973177E0,1.725314185E-3,5.329918861E-2,2.736196518E-1
2.542957604E0,3.107767738E-2,8.534336090E-2,2.478904724E-1
2.547942031E0,6.040630490E-2,1.166334152E-1,2.130670547E-1
2.552926458E0,9.911062568E-2,1.471757889E-1,1.977167130E-1
2.557910885E0,1.327205449E-1,1.627314091E-1,2.396640778E-1
2.562895313E0,1.898149401E-1,1.776225567E-1,2.624759674E-1
2.567879740E0,1.989030838E-1,1.728122234E-1,2.663307190E-1
2.572864167E0,2.036088109E-1,1.673121452E-1,2.324514389E-1
2.577848594E0,2.087470591E-1,1.373364925E-1,1.706695557E-1
2.582833021E0,2.003123313E-1,1.497638226E-1,1.191320419E-1
2.587817448E0,1.879443824E-1,1.520075798E-1,8.725261688E-2
2.592801875E0,1.575468779E-1,1.585445404E-1,1.308345795E-2
2.597786302E0,1.328872740E-1,1.456942558E-1,-7.457065582E-2
2.602770729E0,9.944732487E-2,1.375558376E-1,-1.614265442E-1
2.607755156E0,9.500610828E-2,1.438796520E-1,-2.001199722E-1
2.612739583E0,8.127500117E-2,1.173524857E-1,-2.481508255E-1
2.617724010E0,3.933757544E-2,1.010329723E-1,-3.054609299E-1
2.622708438E0,2.639852464E-3,9.498047829E-2,-3.720331192E-1
2.627692865E0,-4.322396964E-2,8.030867577E-2,-4.431190491E-1
2.632677292E0,-9.845898300E-2,7.147884369E-2,-4.665079117E-1
2.637661719E0,-1.443126202E-1,5.899071693E-2,-4.901065826E-1
2.642646146E0,-1.858339757E-1,4.292201996E-2,-4.759473801E-1
2.647630573E0,-1.997418106E-1,1.375460625E-2,-4.718179703E-1
2.652615000E0,-2.100364864E-1,-4.708290100E-3,-4.396286011E-1
2.657599427E0,-2.024043053E-1,-3.169679642E-2,-3.605613708E-1
2.662583854E0,-1.482604444E-1,-4.354214668E-2,-2.681865692E-1
2.667568281E0,-8.570877463E-2,-5.955576897E-2,-1.720314026E-1
2.672552708E0,-6.660734117E-2,-7.059073448E-2,-6.247329712E-2
2.677537135E0,-3.335068375E-2,-9.568190575E-2,-1.349449158E-3
2.682521563E0,-4.808701575E-3,-1.064624786E-1,5.932807922E-2
2.687505990E0,9.590074420E-3,-1.126463413E-1,1.385946274E-1
2.692490417E0,4.288346320E-2,-1.097164154E-1,2.363681793E-1
2.697474844E0,6.171288341E-2,-1.215381622E-1,2.765369415E-1
2.702459271E0,6.140170246E-2,-1.433858871E-1,3.118724823E-1
2.707443698E0,5.181924999E-2,-1.419851780E-1,3.281908035E-1
2.712428125E0,1.886480302E-2,-1.412231922E-1,3.303794861E-1
2.717412552E0,-2.273971587E-2,-1.362519264E-1,2.900314331E-1
2.722396979E0,-6.827982515E-2,-1.365082264E-1,2.407016754E-1
2.727381406E0,-1.178673580E-1,-1.371061802E-1,2.061681747E-1
2.732365833E0,-1.432586610E-1,-1.331019402E-1,1.719846725E-1
2.737350260E0,-1.351778209E-1,-1.149892807E-1,1.571216583E-1
2.742334688E0,-1.080523878E-1,-9.233474731E-2,9.492206573E-2
2.747319115E0,-9.974852204E-2,-7.467174530E-2,5.226135254E-2
2.752303542E0,-1.148875207E-1,-2.392220497E-2,9.965896606E-3
2.757287969E0,-1.056055725E-1,1.690316200E-2,-7.470321655E-2
2.762272448E0,-1.246121824E-1,4.328393936E-2,-1.539659500E-1
2.767256927E0,-1.433459669E-1,6.498241425E-2,-2.231807709E-1
2.772241406E0,-1.384163350E-1,7.738685608E-2,-3.204631805E-1
2.777225885E0,-1.388800144E-1,9.966659546E-2,-3.649005890E-1
2.782210365E0,-1.260851175E-1,1.270878315E-1,-3.712253571E-1
2.787194844E0,-1.096771210E-1,1.358196735E-1,-3.587322235E-1
2.792179323E0,-8.959801495E-2,1.307194233E-1,-3.370561600E-1
2.797163802E0,-7.512295246E-2,1.166539192E-1,-2.967748642E-1
2.802148281E0,-7.082717121E-2,8.400678635E-2,-2.569570541E-1
2.807132760E0,-4.793109000E-2,6.122899055E-2,-1.937742233E-1
2.812117240E0,-1.589298248E-2,2.924442291E-2,-1.359081268E-1
2.817101719E0,1.748964190E-3,1.172924042E-2,-7.850551605E-2
2.822086198E0,1.942820847E-2,-1.993179321E-2,-2.155876160E-2
2.827070677E0,4.212495685E-2,-3.727364540E-2,2.549839020E-2
2.832055156E0,5.097767711E-2,-4.031920433E-2,3.897380829E-2
2.837039635E0,4.141151905E-2,-5.763220787E-2,2.862262726E-2
2.842024115E0,3.248728812E-2,-6.050777435E-2,2.309608459E-2
2.847008594E0,5.196437240E-3,-5.861425400E-2,-6.114006042E-3
2.851993073E0,-2.233043313E-3,-7.083916664E-2,-4.937267303E-2
2.856977552E0,-2.808976173E-2,-7.322716713E-2,-5.436801910E-2
2.861962031E0,-2.961944044E-2,-6.120657921E-2,-3.087997437E-2
2.866946510E0,-4.535146058E-2,-5.873680115E-2,-7.603645325E-3
2.871930990E0,-5.628928542E-2,-5.633902550E-2,-1.774024963E-2
2.876915469E0,-7.663178444E-2,-5.890464783E-2,-5.145645142E-2
2.881899948E0,-8.733493090E-2,-4.730534554E-2,-1.085920334E-1
2.886884427E0,-8.876980841E-2,-2.645635605E-2,-1.224603653E-1
2.891868906E0,-9.542469680E-2,-1.527953148E-2,-1.172266006E-1
2.896853385E0,-8.363965154E-2,2.439188957E-2,-1.025886536E-1
2.901837865E0,-5.842378736E-2,4.018568993E-2,-6.916999817E-2
2.906822292E0,-6.707340479E-2,4.160308838E-2,-6.927776337E-2
2.911806719E0,-4.716953635E-2,2.876448631E-2,-7.413291931E-2
2.916791146E0,-4.614470899E-2,1.138257980E-2,-8.372879028E-2
2.921775573E0,-3.547523916E-2,1.308894157E-2,-6.473064423E-2
2.926760000E0,-3.437185287E-2,1.012992859E-2,-1.268863678E-2
2.931744427E0,-3.361555934E-2,1.208925247E-2,2.461147308E-2
2.936728854E0,-1.399670541E-2,1.413011551E-2,5.681037903E-2
2.941713281E0,1.516947150E-2,1.957893372E-3,6.973361969E-2
2.946693958E0,2.087275684E-2,-6.639957428E-4,6.833362579E-2
2.951674635E0,3.155395389E-3,1.338243484E-3,5.751419067E-2
2.956655729E0,-6.030499935E-5,-6.223917007E-3,7.054996490E-2
2.961637344E0,-3.644746542E-2,9.773969650E-3,1.025695801E-1
2.966619583E0,-6.319727004E-2,2.558875084E-2,1.343383789E-1
2.971602500E0,-8.034169674E-2,2.213120461E-2,1.326589584E-1
2.976586146E0,-7.831847668E-2,2.810120583E-2,1.310329437E-1
2.981570521E0,-7.595045865E-2,3.861999512E-2,1.484823227E-1
2.986555625E0,-4.450683296E-2,2.990603447E-2,1.183748245E-1
2.991541406E0,-4.605719447E-2,4.005932808E-2,7.911109924E-2
2.996527760E0,-5.694285035E-2,6.422042847E-2,4.023838043E-2
3.001514583E0,-5.353781581E-2,9.301853180E-2,2.064990997E-2
3.006501771E0,-5.066263676E-2,1.169166565E-1,-2.256488800E-2
3.011489219E0,-3.866229951E-2,1.407561302E-1,-5.123615265E-2
3.016476771E0,-8.067518473E-3,1.360952854E-1,-9.399509430E-2
3.021464323E0,3.172913194E-2,1.411666870E-1,-9.373760223E-2
3.026448750E0,6.167498231E-2,1.559386253E-1,-1.220693588E-1
3.031433177E0,6.290765107E-2,1.516458988E-1,-1.264429092E-1
3.036417604E0,5.962185562E-2,1.426942348E-1,-1.402912140E-1
3.041402031E0,6.135223806E-2,1.338222027E-1,-1.635169983E-1
3.046386458E0,5.858947337E-2,1.108310223E-1,-1.770648956E-1
3.051370885E0,1.818001270E-2,9.292912483E-2,-2.095441818E-1
3.056355313E0,-1.700930297E-2,7.522606850E-2,-2.417659760E-1
3.061339740E0,-5.650839210E-2,6.261110306E-2,-2.880344391E-1
3.066324167E0,-7.688635588E-2,5.508637428E-2,-3.007745743E-1
3.071308594E0,-9.262582660E-2,6.695270538E-2,-2.660598755E-1
3.076293021E0,-1.325171590E-1,6.960511208E-2,-2.270479202E-1
3.081277448E0,-1.440766156E-1,6.292629242E-2,-1.742019653E-1
3.086261875E0,-1.702279449E-1,3.744864464E-2,-1.551008224E-1
3.091246302E0,-1.679565609E-1,2.162432671E-2,-1.361427307E-1
3.096230729E0,-1.706604660E-1,5.922079086E-3,-1.363382339E-1
3.101215156E0,-1.641977727E-1,2.367758751E-2,-1.413230896E-1
3.106199583E0,-1.581901014E-1,2.717566490E-2,-1.178388596E-1
3.111184010E0,-1.195876896E-1,5.936884880E-2,-9.465599060E-2
3.116168438E0,-6.718221307E-2,9.162807465E-2,-8.604335785E-2
3.121152865E0,-3.405925632E-2,1.098096371E-1,-8.241271973E-2
3.126137292E0,-1.246631145E-3,1.235256195E-1,-3.149318695E-2
3.131121719E0,4.565715790E-2,1.423635483E-1,2.356910706E-2
3.136106146E0,7.352682948E-2,1.329960823E-1,7.801532745E-2
3.141090573E0,1.017766595E-1,1.429998875E-1,1.509084702E-1
3.146075000E0,1.023384035E-1,1.245861053E-1,2.089233398E-1
3.151059427E0,5.650955439E-2,1.205306053E-1,2.522621155E-1
3.156043854E0,2.598434687E-3,1.163687706E-1,2.810831070E-1
3.161028281E0,-4.539844394E-2,9.750986099E-2,3.146257401E-1
3.166012708E0,-1.067553461E-1,7.342290878E-2,2.864217758E-1
3.170997135E0,-1.534788609E-1,5.368995667E-2,2.539310455E-1
3.175981563E0,-1.766574383E-1,5.716395378E-2,2.124671936E-1
3.180965990E0,-1.720619798E-1,8.365225792E-2,2.095766068E-1
3.185950417E0,-1.730670333E-1,1.092689037E-1,1.974353790E-1
3.190934844E0,-1.556647420E-1,1.388731003E-1,1.475963593E-1
3.195919740E0,-1.198816895E-1,1.344909668E-1,9.834671021E-2
3.200904063E0,-7.991629839E-2,1.344957352E-1,4.490089417E-2
3.205888385E0,-4.053384066E-2,1.531958580E-1,1.502037048E-3
3.210872708E0,-1.547098160E-3,1.479463577E-1,-3.676891327E-2
3.215857031E0,1.794388890E-2,1.618816853E-1,-6.053829193E-2
3.220841354E0,3.721144795E-2,1.854445934E-1,-7.470703125E-2
3.225825677E0,6.099417806E-2,1.806678772E-1,-8.889198303E-2
3.230810000E0,6.084284186E-2,1.763257980E-1,-9.360980988E-2
3.235794323E0,7.517708838E-2,1.724178791E-1,-6.994056702E-2
3.240778646E0,8.956399560E-2,1.783874035E-1,-5.609035492E-2
3.245762969E0,7.589034736E-2,1.609642506E-1,-4.248714447E-2
3.250747292E0,4.873347282E-2,1.297907829E-1,-1.011180878E-2
3.255731615E0,-6.319642067E-3,9.922432899E-2,7.630348206E-3
3.260715990E0,-6.547644734E-2,7.376050949E-2,5.843448639E-2
3.265700417E0,-1.050332189E-1,5.325269699E-2,1.088237762E-1
3.270684896E0,-1.348327994E-1,9.067535400E-3,1.493358612E-1
3.275669375E0,-1.503599882E-1,-2.085924149E-2,1.848907471E-1
3.280653854E0,-1.706423163E-1,-4.144048691E-2,1.823101044E-1
3.285638333E0,-2.002666593E-1,-5.765676498E-2,1.562166214E-1
3.290622813E0,-2.154494226E-1,-6.000280380E-2,1.400289536E-1
3.295607292E0,-2.164271474E-1,-5.814290047E-2,1.004390717E-1
3.300591771E0,-1.795580685E-1,-6.141209602E-2,5.181312561E-2
3.305576250E0,-1.432867050E-1,-3.172588348E-2,1.794528961E-2
3.310560729E0,-7.919731736E-2,6.998777390E-3,-1.082706451E-2
3.315545208E0,-3.011891246E-2,2.145743370E-2,-4.404258728E-2
3.320529688E0,2.315229177E-2,4.999089241E-2,-9.596252441E-2
3.325514167E0,4.735973477E-2,7.358789444E-2,-1.427240372E-1
3.330498646E0,6.178158522E-2,8.290052414E-2,-1.416730881E-1
3.335483125E0,5.224823952E-2,8.283901215E-2,-1.549549103E-1
3.340467604E0,4.723709822E-2,7.827758789E-2,-1.729784012E-1
3.345452083E0,1.833575964E-2,7.415032387E-2,-1.862583160E-1
3.350436563E0,3.628343344E-3,6.560206413E-2,-1.995477676E-1
3.355421042E0,-3.505799174E-2,5.276536942E-2,-2.318792343E-1
3.360405521E0,-7.382231951E-2,4.526162148E-2,-2.451400757E-1
3.365390000E0,-9.363868833E-2,3.834438324E-2,-2.727451324E-1
3.370374479E0,-9.007996321E-2,3.685355186E-2,-2.956218719E-1
3.375358958E0,-6.335806847E-2,4.539370537E-2,-2.710361481E-1
3.380343438E0,-5.145215988E-2,5.453729630E-2,-2.659101486E-1
3.385327917E0,-1.148858666E-2,6.892704964E-2,-2.278108597E-1
3.390312396E0,2.824068069E-2,6.934070587E-2,-1.711711884E-1
3.395296875E0,6.778705120E-2,7.949113846E-2,-1.198320389E-1
3.400281354E0,1.069987118E-1,8.501315117E-2,-6.424236298E-2
3.405265833E0,1.696698070E-1,1.001422405E-1,3.309249878E-4
3.410250313E0,1.749033779E-1,1.056663990E-1,7.386398315E-2
3.415234792E0,1.854583621E-1,1.158094406E-1,1.800813675E-1
3.420219271E0,2.061413378E-1,1.063551903E-1,2.428970337E-1
3.425203750E0,2.227639258E-1,8.690953255E-2,2.911872864E-1
3.430188177E0,2.114753425E-1,5.731415749E-2,2.966642380E-1
3.435172604E0,2.007005364E-1,5.103325844E-2,2.881126404E-1
3.440157031E0,1.758953929E-1,4.412913322E-2,2.751359940E-1
3.445141458E0,1.653865427E-1,6.998872757E-2,2.292175293E-1
3.450125885E0,1.595433205E-1,7.625555992E-2,2.170553207E-1
3.455110313E0,1.440493464E-1,7.738876343E-2,1.908636093E-1
3.460094740E0,1.380586326E-1,8.302450180E-2,1.934633255E-1
3.465079167E0,1.369390786E-1,5.988526344E-2,1.866331100E-1
3.470063594E0,1.455455124E-1,5.089807510E-2,1.799716949E-1
3.475048021E0,1.305883378E-1,2.750134468E-2,1.639633179E-1
3.480032448E0,9.704373777E-2,2.794766426E-2,1.386346817E-1
3.485016875E0,8.776736259E-2,1.874613762E-2,9.458541870E-2
3.490001302E0,5.508959293E-2,4.873752594E-3,8.415031433E-2
3.494985729E0,8.716106415E-3,1.020669937E-2,5.003356934E-2
3.499970156E0,-2.281481028E-2,1.343250275E-3,6.366062164E-2
3.504954583E0,-1.130044460E-2,-2.160048485E-2,2.490997314E-2
3.509939010E0,-4.633426666E-3,-4.416346550E-2,5.407333374E-3
3.514923438E0,-1.263117790E-2,-7.124614716E-2,-2.345561981E-2
3.519907865E0,-1.616385579E-2,-4.588127136E-2,-2.834320068E-2
3.524892292E0,-3.434309363E-2,-3.968191147E-2,-2.847003937E-2
3.529876719E0,-3.380736709E-2,-2.879500389E-2,-2.860736847E-2
3.534861146E0,-4.303872585E-2,9.391307831E-4,-2.398395538E-2
3.539841927E0,-5.250793695E-2,2.092099190E-2,-4.119873047E-4
3.544822708E0,-6.697523594E-2,5.967831612E-2,2.772045135E-2
3.549803906E0,-7.213637233E-2,6.947302818E-2,3.191852570E-2
3.554785625E0,-8.206951618E-2,8.373737335E-2,4.564762115E-2
3.559767969E0,-7.780802250E-2,6.924200058E-2,5.456352234E-2
3.564750990E0,-6.421482563E-2,6.887006760E-2,7.298564911E-2
3.569734740E0,-6.512814760E-2,7.315278053E-2,9.603309631E-2
3.574719219E0,-7.559838891E-2,6.770610809E-2,1.047115326E-1
3.579703854E0,-8.603110909E-2,6.220746040E-2,9.910583496E-2
3.584688490E0,-7.262143493E-2,5.190610886E-2,7.933807373E-2
3.589673802E0,-3.073534369E-2,3.679561615E-2,5.029487610E-2
3.594659688E0,1.094391942E-2,2.645778656E-2,3.103256226E-2
3.599646094E0,5.702325702E-2,3.045344353E-2,2.617454529E-2
3.604632917E0,1.071712971E-1,2.966928482E-2,3.559207916E-2
3.609620052E0,1.378123164E-1,4.789376259E-2,6.392097473E-2
3.614607396E0,1.350775659E-1,3.748512268E-2,3.028392792E-2
3.619594792E0,1.375773549E-1,5.091476440E-2,-3.061294556E-3
3.624581250E0,1.121758521E-1,4.994654655E-2,-1.710033417E-2
3.629565677E0,7.822874188E-2,6.798648834E-2,-4.524707794E-2
3.634550104E0,4.034104943E-2,8.583045006E-2,-7.787513733E-2
3.639534531E0,-1.560211182E-2,9.873056412E-2,-1.054449081E-1
3.644518958E0,-7.542359829E-2,1.115179062E-1,-1.755075455E-1
3.649503385E0,-1.438892782E-1,1.195425987E-1,-2.355098724E-1
3.654487813E0,-1.927622557E-1,1.323904991E-1,-2.665710449E-1
3.659472240E0,-2.035062909E-1,1.357266903E-1,-3.021621704E-1
3.664456667E0,-2.052243054E-1,1.487715244E-1,-3.328132629E-1
3.669441094E0,-1.934030950E-1,1.666018963E-1,-3.110532761E-1
3.674425521E0,-1.635179222E-1,1.795377731E-1,-3.037481308E-1
3.679409948E0,-1.537069380E-1,1.875727177E-1,-2.822704315E-1
3.684394375E0,-1.493920982E-1,1.765041351E-1,-2.609786987E-1
3.689378802E0,-1.455647945E-1,1.701874733E-1,-2.208538055E-1
3.694363229E0,-1.133200824E-1,1.637876034E-1,-1.810150146E-1
3.699347656E0,-1.143625379E-1,1.715033054E-1,-1.461820602E-1
3.704332083E0,-1.008676887E-1,1.505260468E-1,-1.353216171E-1
3.709316510E0,-1.061470807E-1,1.249840260E-1,-1.055498123E-1
3.714300938E0,-1.255270243E-1,1.234514713E-1,-9.978485107E-2
3.719285365E0,-1.445465982E-1,1.456303596E-1,-8.929634094E-2
3.724269792E0,-1.774413288E-1,1.343374252E-1,-6.462478638E-2
3.729254219E0,-1.814079583E-1,1.563789845E-1,-4.965114594E-2
3.734238646E0,-1.661846936E-1,1.591458321E-1,-3.476047516E-2
3.739223073E0,-1.698837280E-1,1.854896545E-1,3.807067871E-3
3.744207500E0,-2.065391541E-1,2.067275047E-1,5.635833740E-2
3.749191927E0,-2.092505991E-1,2.275524139E-1,1.038236618E-1
3.754176354E0,-2.065114081E-1,2.241790295E-1,1.605186462E-1
3.759160781E0,-2.174637616E-1,2.059576511E-1,1.837539673E-1
3.764145208E0,-2.372453511E-1,1.967062950E-1,1.643314362E-1
3.769129635E0,-2.326773107E-1,1.821494102E-1,1.215801239E-1
3.774114063E0,-2.658531070E-1,1.814265251E-1,8.414363861E-2
3.779098490E0,-2.941986620E-1,1.993148327E-1,2.816677094E-2
3.784082917E0,-2.944033444E-1,2.261135578E-1,-1.295375824E-2
3.789067344E0,-2.668667436E-1,2.336480618E-1,-3.474330902E-2
3.794051771E0,-2.258455753E-1,2.601239681E-1,-7.061672211E-2
3.799036198E0,-1.997470856E-1,2.865853310E-1,-9.202957153E-2
3.804020625E0,-1.831846237E-1,3.084385395E-1,-9.914302826E-2
3.809005052E0,-1.471962631E-1,3.210222721E-1,-9.682941437E-2
3.813989479E0,-1.058829725E-1,3.245222569E-1,-1.136856079E-1
3.818973906E0,-9.252777696E-2,3.237144947E-1,-1.400375366E-1
3.823958333E0,-1.164545715E-1,3.094346523E-1,-1.759214401E-1
3.828942760E0,-1.680264175E-1,3.007812500E-1,-1.832714081E-1
3.833927188E0,-2.089146376E-1,2.881093025E-1,-2.002716064E-1
3.838911615E0,-3.481560647E-1,1.243386269E-1,-2.601022720E-1
3.843896042E0,-4.564494193E-1,4.828119278E-2,-2.959613800E-1
3.848880469E0,-4.739148915E-1,1.489245892E-1,-2.841825485E-1
3.853864896E0,-4.257289171E-1,2.583420277E-1,-1.871070862E-1
3.858849323E0,-3.928515315E-1,2.052242756E-1,-1.097946167E-1
3.863833750E0,-4.783477485E-1,6.215834618E-2,-1.469907761E-1
3.868818177E0,-5.242570639E-1,5.439043045E-3,-2.501840591E-1
3.873802604E0,-5.071008205E-1,3.909564018E-2,-3.048553467E-1
3.878787031E0,-4.944880307E-1,1.053891182E-1,-3.351774216E-1
3.883771458E0,-5.252648592E-1,1.280686855E-1,-3.746385574E-1
3.888755885E0,-5.949911475E-1,1.359820366E-1,-4.896755219E-1
3.893740313E0,-6.035760045E-1,1.674826145E-1,-5.990285873E-1
3.898724740E0,-6.083464026E-1,2.130248547E-1,-6.315660477E-1
3.903709167E0,-6.092482805E-1,2.441022396E-1,-6.496963501E-1
3.908693594E0,-5.828620791E-1,2.846748829E-1,-6.773376465E-1
3.913678021E0,-5.437381268E-1,3.111181259E-1,-7.002477646E-1
3.918662448E0,-4.967038631E-1,3.379526138E-1,-6.615447998E-1
3.923646875E0,-4.322036505E-1,3.508932590E-1,-6.044588089E-1
3.928631302E0,-3.786004782E-1,3.500053883E-1,-5.433540344E-1
3.933615729E0,-3.164805770E-1,3.542108536E-1,-4.734230042E-1
3.938600156E0,-2.884160876E-1,3.395226002E-1,-4.278888702E-1
3.943584583E0,-2.560793161E-1,3.298506737E-1,-3.733072281E-1
3.948569010E0,-2.242127061E-1,3.346900940E-1,-3.050174713E-1
3.953553438E0,-1.881123781E-1,3.489787579E-1,-2.468051910E-1
3.958537865E0,-1.855709553E-1,3.584954739E-1,-2.128582001E-1
3.963522292E0,-1.498855352E-1,3.870623112E-1,-1.745004654E-1
3.968506719E0,-1.712859869E-1,4.060902596E-1,-1.365261078E-1
3.973491146E0,-1.732797027E-1,4.391984940E-1,-4.661750793E-2
3.978475573E0,-1.513955593E-1,4.434823990E-1,2.357769012E-2
3.983460000E0,-1.154077053E-1,4.570767879E-1,6.950759888E-2
3.988444427E0,-1.033439636E-1,4.703073502E-1,9.616374969E-2
3.993428854E0,-8.168005943E-2,4.972834587E-1,1.180114746E-1
3.998413281E0,-2.185302973E-2,5.237495899E-1,1.303110123E-1
4.003397708E0,6.171506643E-2,5.639212132E-1,1.046714783E-1
4.008382135E0,1.071884632E-1,6.083457470E-1,1.030836105E-1
4.013366563E0,1.197376251E-1,6.617443562E-1,1.158523560E-1
4.018350990E0,1.379013956E-1,7.003667355E-1,8.111763000E-2
4.023335417E0,1.284909248E-1,7.052917480E-1,4.678440094E-2
4.028319844E0,9.661996365E-2,7.149870396E-1,-2.046012878E-2
4.033304271E0,5.672520399E-2,6.962077618E-1,-6.336879730E-2
4.038288698E0,-1.517766714E-2,6.826214790E-1,-1.439666748E-1
4.043273125E0,-7.634603977E-2,6.648788452E-1,-1.670589447E-1
4.048257552E0,-1.369069219E-1,6.287620068E-1,-1.996307373E-1
4.053241979E0,-1.876100302E-1,5.982151031E-1,-2.178936005E-1
4.058226406E0,-2.335843444E-1,5.494899750E-1,-2.267484665E-1
4.063210833E0,-2.749254107E-1,4.969267845E-1,-2.072620392E-1
4.068195260E0,-2.548537254E-1,4.497132301E-1,-1.642961502E-1
4.073179688E0,-2.310648561E-1,3.934540749E-1,-9.327030182E-2
4.078164115E0,-1.941303015E-1,3.280732632E-1,-1.335811615E-2
4.083148542E0,-1.396455765E-1,2.821471691E-1,8.009719849E-2
4.088132969E0,-5.809628963E-2,2.172384262E-1,2.108449936E-1
4.093117396E0,-1.788973808E-3,1.571114063E-1,2.884168625E-1
4.098101823E0,3.904229403E-2,8.248329163E-2,3.893308640E-1
4.103086250E0,1.164677739E-1,3.601622581E-2,4.659662247E-1
4.108070677E0,1.496024728E-1,-1.586246490E-2,5.185718536E-1
4.113055104E0,1.626056433E-1,-5.891251564E-2,5.141334534E-1
4.118039531E0,1.843410432E-1,-8.841753006E-2,5.101032257E-1
4.123023958E0,1.862967610E-1,-1.188492775E-1,4.875345230E-1
4.128008385E0,1.876617670E-1,-1.501550674E-1,3.943338394E-1
4.132992813E0,1.695451140E-1,-1.917762756E-1,2.975578308E-1
4.137977240E0,1.654390693E-1,-2.385935783E-1,1.876382828E-1
4.142961667E0,2.132158279E-1,-2.525265217E-1,7.891178131E-2
4.147946094E0,2.930121422E-1,-2.619013786E-1,-5.080223083E-3
4.152930521E0,3.330507874E-1,-2.524530888E-1,-7.407569885E-2
4.157914948E0,3.239133954E-1,-1.860523224E-1,-1.140756607E-1
4.162899375E0,3.043770790E-1,-1.342515945E-1,-1.490993500E-1
4.167883802E0,2.749479413E-1,-6.834292412E-2,-1.507091522E-1
4.172868229E0,2.410590947E-1,-4.547309875E-2,-1.571235657E-1
4.177852656E0,2.077199966E-1,-2.720093727E-2,-1.778268814E-1
4.182837083E0,2.270243615E-1,-3.728389740E-2,-1.746997833E-1
4.187821510E0,2.841213644E-1,-4.688882828E-2,-1.289949417E-1
4.192805938E0,3.261900246E-1,-3.786087036E-3,-9.331417084E-2
4.197790365E0,3.582773209E-1,1.096463203E-2,-4.861259460E-2
4.202774844E0,3.994689584E-1,-1.683712006E-2,3.360366821E-2
4.207759323E0,4.642046988E-1,-7.762503624E-2,1.104068756E-1
4.212743802E0,5.145422816E-1,-1.429276466E-1,1.582241058E-1
4.217728281E0,5.744988918E-1,-2.080051899E-1,1.583261490E-1
4.222712760E0,6.107949018E-1,-2.634673119E-1,1.633825302E-1
4.227697240E0,6.517605186E-1,-2.951030731E-1,1.970672607E-1
4.232681719E0,6.737602949E-1,-3.175051212E-1,2.022199631E-1
4.237666198E0,6.866831779E-1,-3.213553429E-1,1.648797989E-1
4.242650677E0,6.627750397E-1,-3.352046013E-1,7.588005066E-2
4.247635156E0,6.076842546E-1,-3.495702744E-1,-2.156639099E-2
4.252619635E0,5.503567457E-1,-3.405578136E-1,-1.084527969E-1
4.257604115E0,4.526101053E-1,-3.271601200E-1,-1.849546432E-1
4.262588594E0,3.051773012E-1,-2.570347786E-1,-2.939586639E-1
4.267573073E0,1.228913814E-1,-1.589496136E-1,-4.780063629E-1
4.272557552E0,-3.189900517E-2,-7.092428207E-2,-6.795644760E-1
4.277542031E0,-1.406444311E-1,3.586101532E-2,-8.463535309E-1
4.282526510E0,-2.182655483E-1,1.092176437E-1,-1.035732269E0
4.287510990E0,-2.514237761E-1,1.688108444E-1,-1.247678280E0
4.292495469E0,-3.175045252E-1,1.961524487E-1,-1.429956913E0
4.297479948E0,-4.030444622E-1,2.536242008E-1,-1.535516262E0
4.302464427E0,-5.043966174E-1,2.985682487E-1,-1.574666500E0
4.307448906E0,-5.650954247E-1,3.265197277E-1,-1.524317265E0
4.312433385E0,-6.050456762E-1,3.091130257E-1,-1.399475574E0
4.317417865E0,-5.673828125E-1,2.798519135E-1,-1.205464840E0
4.322402344E0,-4.807709455E-1,2.384393215E-1,-9.474296570E-1
4.327386823E0,-3.500482440E-1,2.132191658E-1,-6.210317612E-1
4.332371302E0,-1.984449178E-1,2.083244324E-1,-3.310785294E-1
4.337355781E0,-1.013262272E-1,2.231559753E-1,-8.180522919E-2
4.342340260E0,-3.347247839E-4,2.667624950E-1,1.747570038E-1
4.347324740E0,9.123374522E-2,3.004944324E-1,3.532667160E-1
4.352309219E0,2.072333097E-1,3.622357845E-1,4.354639053E-1
4.357293646E0,2.767348289E-1,4.040839672E-1,4.554672241E-1
4.362278073E0,3.095409870E-1,4.452009201E-1,4.327793121E-1
4.367262500E0,3.152478933E-1,5.046865940E-1,4.104394913E-1
4.372246927E0,3.652930558E-1,4.778759480E-1,3.599662781E-1
4.377231354E0,3.931370974E-1,5.220479965E-1,2.816505432E-1
4.382215781E0,2.801406384E-1,6.556532383E-1,2.184352875E-1
4.387200208E0,1.315354109E-1,7.450361252E-1,1.416740417E-1
4.392184635E0,-5.249448121E-3,8.429470062E-1,9.890079498E-2
4.397169063E0,-1.307812035E-1,8.733894825E-1,4.231834412E-2
4.402153490E0,-1.884012669E-1,8.464727402E-1,-5.172061920E-2
4.407137917E0,-2.119733989E-1,7.581222057E-1,-1.354980469E-1
4.412122344E0,-2.826053202E-1,6.848788261E-1,-2.138700485E-1
4.417106771E0,-4.191805720E-1,6.459009647E-1,-3.107414246E-1
4.422091198E0,-5.646219254E-1,6.269447803E-1,-3.738441467E-1
4.427075625E0,-7.143586874E-1,6.185839176E-1,-4.462909698E-1
4.432060052E0,-8.068758249E-1,5.782291889E-1,-4.901132584E-1
4.437044479E0,-8.378368616E-1,5.395269394E-1,-5.293426514E-1
4.442028906E0,-8.458142281E-1,4.933011532E-1,-5.451517105E-1
4.447009635E0,-8.593390584E-1,4.349954128E-1,-5.092859268E-1
4.451990365E0,-8.970166445E-1,3.931143284E-1,-3.888854980E-1
4.456971510E0,-8.490011692E-1,3.530879021E-1,-1.845626831E-1
4.461953177E0,-7.443007827E-1,3.238751888E-1,6.996154785E-2
4.466935469E0,-7.021743059E-1,3.096609116E-1,2.984781265E-1
4.471918438E0,-5.650858879E-1,6.297183037E-2,4.396486282E-1
4.476902135E0,-5.804255009E-1,6.525969505E-2,5.037422180E-1
4.481886563E0,-8.031995296E-1,1.525533199E-1,6.197957993E-1
4.486871667E0,-1.003703237E0,2.047417164E-1,6.784124374E-1
4.491857396E0,-9.733980894E-1,2.170691490E-1,7.039117813E-1
4.496843698E0,-8.298218250E-1,1.421761513E-1,6.253681183E-1
4.501830469E0,-7.600839734E-1,1.417160034E-2,6.667356491E-1
4.506817604E0,-6.543437243E-1,-1.334104538E-1,6.133794785E-1
4.511804948E0,-5.175084472E-1,-1.908974648E-1,4.279890060E-1
4.516792396E0,-4.214969873E-1,-1.776924133E-1,2.919645309E-1
4.521779844E0,-3.329363763E-1,-1.317853928E-1,1.192035675E-1
4.526764531E0,-2.704894841E-1,-9.565353394E-2,5.245208740E-5
4.531748958E0,-2.097761929E-1,-1.116085052E-1,-5.654621124E-2
4.536733385E0,-1.457890272E-1,-1.457798481E-1,-2.742958069E-2
4.541717813E0,-9.725989401E-2,-2.121157646E-1,1.179695129E-3
4.546702240E0,-4.500594735E-2,-2.865567207E-1,7.676219940E-2
4.551686667E0,-1.760578156E-2,-3.643865585E-1,1.847219467E-1
4.556671094E0,-5.370795727E-3,-4.058709145E-1,2.697830200E-1
4.561655521E0,-1.260344684E-2,-4.420797825E-1,3.307123184E-1
4.566639948E0,2.310192585E-2,-4.875214100E-1,3.436889648E-1
4.571624375E0,-4.729524255E-2,-5.521578789E-1,3.806362152E-1
4.576608802E0,-7.858885825E-2,-6.650340557E-1,2.263917923E-1
4.581593229E0,-1.342009008E-1,-7.006494999E-1,4.350185394E-2
4.586577656E0,-2.748103738E-1,-6.538140774E-1,-1.107540131E-1
4.591562083E0,-3.517008424E-1,-6.349711418E-1,-2.984638214E-1
4.596546510E0,-3.261506259E-1,-6.155357361E-1,-4.717102051E-1
4.601530938E0,-3.275352716E-1,-5.714378357E-1,-5.827445984E-1
4.606515365E0,-2.793253064E-1,-5.358774662E-1,-7.752180099E-1
4.611499792E0,-1.719792187E-1,-4.891560078E-1,-9.296426773E-1
4.616484219E0,-1.157458723E-1,-4.263963699E-1,-9.647932053E-1
4.621468646E0,-8.729647100E-2,-3.668406010E-1,-9.620819092E-1
4.626453073E0,-1.099352166E-2,-3.250758648E-1,-9.884281158E-1
4.631437500E0,7.328502834E-2,-3.059568405E-1,-9.720211029E-1
4.636421927E0,1.495652199E-1,-3.095011711E-1,-9.559335709E-1
4.641406354E0,1.784581393E-1,-3.403100967E-1,-9.593200684E-1
4.646390781E0,1.353254020E-1,-3.694548607E-1,-9.247913361E-1
4.651375208E0,2.449810319E-2,-3.970894814E-1,-8.044767380E-1
4.656359635E0,-7.259009033E-2,-3.662285805E-1,-5.552654266E-1
4.661344063E0,-2.031252086E-1,-3.207397461E-1,-2.822618484E-1
4.666328490E0,-3.029087186E-1,-3.088157177E-1,-2.840709686E-2
4.671312917E0,-2.882071137E-1,-3.596560955E-1,1.299400330E-1
4.676297344E0,-2.478030771E-1,-4.395999908E-1,2.597761154E-1
4.681281771E0,-1.894010007E-1,-5.059697628E-1,3.372564316E-1
4.686266198E0,-7.759889960E-2,-5.492159128E-1,4.436464310E-1
4.691250625E0,1.125157177E-1,-5.884975195E-1,6.792526245E-1
4.696155833E0,2.761543393E-1,-6.009063721E-1,9.054098129E-1
4.701067344E0,4.897262156E-1,-6.335692406E-1,9.306039810E-1
4.705987865E0,6.900899410E-1,-6.530380249E-1,8.077116013E-1
4.710919583E0,8.229675889E-1,-6.304335594E-1,6.995105743E-1
4.715864167E0,9.247503281E-1,-5.705928802E-1,6.347332001E-1
4.720822656E0,9.509935379E-1,-4.876654148E-1,6.420011520E-1
4.725795573E0,8.661465645E-1,-4.297622442E-1,6.543912888E-1
4.730782760E0,7.306207418E-1,-4.254536629E-1,5.810518265E-1
4.735783542E0,5.618349314E-1,-4.076220989E-1,4.603719711E-1
4.740796719E0,4.021246433E-1,-4.194400311E-1,3.689699173E-1
4.745820677E0,2.896468639E-1,-4.277141094E-1,3.308000565E-1
4.750853385E0,2.098347843E-1,-4.615212679E-1,3.124246597E-1
4.755892552E0,1.778246760E-1,-4.828461409E-1,1.990938187E-1
4.760935729E0,9.908583760E-2,-5.062249899E-1,1.391973495E-1
4.765980417E0,7.068553567E-2,-5.270352364E-1,1.804952621E-1
4.771001979E0,7.950913906E-2,-5.695037842E-1,2.750597000E-1
4.775986406E0,1.223493218E-1,-6.430622339E-1,3.270778656E-1
4.780970833E0,1.625242531E-1,-7.281743288E-1,3.746900558E-1
4.785955260E0,1.628535986E-1,-8.152079582E-1,3.986835480E-1
4.790939688E0,2.007707953E-1,-9.661861658E-1,3.559398651E-1
4.795924115E0,2.534983158E-1,-1.051403522E0,3.563375473E-1
4.800908542E0,2.926638126E-1,-1.118463039E0,3.949308395E-1
4.805892969E0,3.324950933E-1,-1.186273217E0,2.994441986E-1
4.810877396E0,3.488184214E-1,-1.249596119E0,1.464748383E-1
4.815861823E0,3.843359947E-1,-1.298401833E0,-1.814842224E-3
4.820846250E0,4.962422848E-1,-1.313373566E0,-1.263237000E-1
4.825830677E0,7.256311774E-1,-1.274873972E0,-2.988262177E-1
4.830815104E0,8.691771626E-1,-1.278567076E0,-3.756675720E-1
4.835799531E0,8.713325858E-1,-1.286668301E0,-2.323522568E-1
4.840783958E0,8.554382324E-1,-1.285559893E0,-1.224136353E-1
4.845768385E0,8.551840782E-1,-1.265760183E0,-3.624916077E-2
4.850752813E0,9.570966959E-1,-1.256228209E0,-1.206302643E-2
4.855737240E0,1.138092518E0,-1.252006531E0,-3.551578522E-2
4.860721667E0,1.289121747E0,-1.238188267E0,-7.802581787E-2
4.865706094E0,1.377612591E0,-1.233201742E0,-1.636800766E-1
4.870690521E0,1.414398313E0,-1.213217020E0,-1.872491837E-1
4.875674948E0,1.467949748E0,-1.187234521E0,-3.259611130E-1
4.880659375E0,1.514864445E0,-1.178306699E0,-3.312005997E-1
4.885643802E0,1.521269560E0,-1.176577210E0,-2.653398514E-1
4.890628229E0,1.519745827E0,-1.143655896E0,-1.619129181E-1
4.895612656E0,1.518945217E0,-1.127342582E0,-4.483890533E-2
4.900597083E0,1.566161394E0,-1.065594912E0,2.007102966E-1
4.905581510E0,1.617673516E0,-9.784674644E-1,4.982795715E-1
4.910565938E0,1.697723508E0,-8.436216116E-1,7.237777710E-1
4.915550365E0,1.768761754E0,-7.294092178E-1,8.344993591E-1
4.920534792E0,1.836657405E0,-6.131457090E-1,8.260154724E-1
4.925519219E0,1.902385473E0,-5.054477453E-1,6.986503601E-1
4.930503646E0,1.952046156E0,-3.496552706E-1,4.287786484E-1
4.935488073E0,2.014377832E0,-1.795378923E-1,1.314191818E-1
4.940472500E0,2.040762424E0,4.785990715E-2,-2.363758087E-1
4.945456927E0,2.063420773E0,2.898747921E-1,-6.267166138E-1
4.950441354E0,2.056286812E0,5.330560207E-1,-9.870729446E-1
4.955425781E0,2.016927719E0,7.024164200E-1,-1.260337830E0
4.960410208E0,1.914573193E0,8.096051216E-1,-1.418308258E0
4.965394635E0,1.752351403E0,8.848743439E-1,-1.456641197E0
4.970379063E0,1.634445667E0,9.436838627E-1,-1.471361160E0
4.975363490E0,1.479976058E0,9.818272591E-1,-1.395682335E0
4.980347917E0,1.381110072E0,9.992227554E-1,-1.196243286E0
4.985332344E0,1.406504035E0,9.379391670E-1,-8.683166504E-1
4.990316771E0,1.476793647E0,8.354029655E-1,-4.788560867E-1
4.995301198E0,1.531563759E0,7.385127544E-1,-1.090688705E-1
5.000285625E0,1.534048200E0,6.413602829E-1,1.408319473E-1
5.005270052E0,1.490208149E0,5.481350422E-1,3.428134918E-1
5.010254479E0,1.487485290E0,4.868807793E-1,5.448322296E-1
5.015238906E0,1.545601368E0,4.476983547E-1,6.177825928E-1
5.020223333E0,1.626938224E0,4.352483749E-1,5.522289276E-1
5.025207760E0,1.626544833E0,4.307258129E-1,4.151935577E-1
5.030192188E0,1.635696888E0,4.822092056E-1,1.732053757E-1
5.035176615E0,1.649407864E0,5.663347244E-1,-1.591682434E-2
5.040161042E0,1.690621853E0,6.692702770E-1,-1.188383102E-1
5.045145469E0,1.758150101E0,7.485523224E-1,-1.692190170E-1
5.050129896E0,1.860265493E0,8.046984673E-1,-1.767368317E-1
5.055114323E0,1.947983503E0,8.239302635E-1,-2.754249573E-1
5.060098750E0,1.930382013E0,7.829158306E-1,-4.174690247E-1
5.065083177E0,1.845720768E0,7.302141190E-1,-4.690570831E-1
5.070067604E0,1.693623781E0,6.948502064E-1,-4.447069168E-1
5.075052031E0,1.493304849E0,6.960537434E-1,-3.732376099E-1
5.080036458E0,1.249847174E0,6.810426712E-1,-2.642564774E-1
5.085020885E0,9.969125986E-1,6.638109684E-1,-1.512012482E-1
5.090005313E0,8.062016964E-1,6.056742668E-1,-1.484012604E-2
5.094989740E0,7.256397009E-1,5.636794567E-1,1.592330933E-1
5.099974167E0,7.313532829E-1,4.991455078E-1,3.662786484E-1
5.104958594E0,7.756749988E-1,4.737098217E-1,5.968132019E-1
5.109943021E0,8.157424927E-1,4.769413471E-1,8.653297424E-1
5.114927448E0,8.376876712E-1,4.650471210E-1,1.023671150E0
5.119911875E0,8.703975677E-1,4.229838848E-1,1.129513741E0
5.124896302E0,8.895211816E-1,4.510207176E-1,1.168633461E0
5.129880729E0,8.705569506E-1,4.436001778E-1,1.107714653E0
5.134865156E0,8.088499904E-1,4.869463444E-1,1.037720680E0
5.139849583E0,8.099164367E-1,5.477242470E-1,9.394760132E-1
5.144834010E0,8.309413195E-1,6.548039913E-1,8.703517914E-1
5.149818438E0,8.338429332E-1,7.509377003E-1,7.250499725E-1
5.154802865E0,8.330104351E-1,7.982816696E-1,5.514039993E-1
5.159787292E0,7.706298232E-1,8.642146587E-1,4.450359344E-1
5.164771719E0,7.273016572E-1,9.248561859E-1,4.537000656E-1
5.169756146E0,7.361732125E-1,9.895722866E-1,5.964345932E-1
5.174740573E0,8.728538752E-1,9.237806797E-1,5.623817444E-1
5.179725000E0,9.159448743E-1,8.565108776E-1,5.431423187E-1
5.184709427E0,9.095026255E-1,8.734812737E-1,5.531015396E-1
5.189693854E0,8.922528028E-1,9.361205101E-1,4.583473206E-1
5.194678281E0,8.311715126E-1,1.001182795E0,3.403415680E-1
5.199662708E0,7.648009062E-1,1.073450565E0,1.847658157E-1
5.204647135E0,7.457031012E-1,1.110083818E0,-8.370399475E-3
5.209631563E0,7.545397878E-1,1.168975830E0,-2.056360245E-1
5.214615990E0,8.007649183E-1,1.255594492E0,-4.263114929E-1
5.219600417E0,8.506867886E-1,1.322739601E0,-6.179018021E-1
5.224584844E0,8.901273012E-1,1.395054817E0,-6.993122101E-1
5.229569271E0,9.577907920E-1,1.424908400E0,-6.611766815E-1
5.234553698E0,1.045093894E0,1.431580067E0,-6.375989914E-1
5.239538125E0,1.138528585E0,1.424508095E0,-6.046342850E-1
5.244522552E0,1.229664803E0,1.418055534E0,-6.101398468E-1
5.249506979E0,1.290750384E0,1.426673889E0,-6.349821091E-1
5.254491406E0,1.278729320E0,1.431277514E0,-6.982755661E-1
5.259475833E0,1.259932756E0,1.417587042E0,-7.186632156E-1
5.264460260E0,1.257084608E0,1.390267134E0,-5.717954636E-1
5.269444688E0,1.312405825E0,1.363332272E0,-4.442920685E-1
5.274429115E0,1.392514586E0,1.307632446E0,-4.220962524E-1
5.279413542E0,1.464212060E0,1.218072653E0,-4.428157806E-1
5.284397969E0,1.450983047E0,1.142478704E0,-4.681177139E-1
5.289382396E0,1.395307422E0,1.090409756E0,-4.788560867E-1
5.294366823E0,1.358754873E0,1.033203125E0,-4.272317886E-1
5.299351250E0,1.359457731E0,9.900505543E-1,-3.611612320E-1
5.304335677E0,1.406812549E0,9.274070263E-1,-3.093481064E-1
5.309320104E0,1.443821549E0,8.644263744E-1,-3.004741669E-1
5.314304531E0,1.470426083E0,7.628507614E-1,-1.957969666E-1
5.319288958E0,1.496118426E0,6.800653934E-1,1.891994476E-2
5.324273385E0,1.540491462E0,6.205754280E-1,2.670917511E-1
5.329257813E0,1.575388432E0,5.454854965E-1,4.149389267E-1
5.334242240E0,1.582662463E0,4.735972881E-1,4.913959503E-1
5.339226667E0,1.519982934E0,4.095475674E-1,4.583559036E-1
5.344211094E0,1.435516834E0,4.112339020E-1,3.493194580E-1
5.349195521E0,1.371812105E0,4.407286644E-1,2.647104263E-1
5.354179948E0,1.318883777E0,5.032408237E-1,1.804666519E-1
5.359164375E0,1.309955597E0,5.419523716E-1,5.337905884E-2
5.364148802E0,1.302308917E0,5.620865822E-1,-1.022539139E-1
5.369133229E0,1.281869173E0,5.834109783E-1,-2.435169220E-1
5.374117656E0,1.272749901E0,6.162562370E-1,-3.706426620E-1
5.379102083E0,1.241406083E0,6.755728722E-1,-4.407863617E-1
5.384086510E0,1.245220304E0,7.089829445E-1,-4.684419632E-1
5.389070938E0,1.241116524E0,7.265045643E-1,-5.303039551E-1
5.394055365E0,1.185904980E0,7.142813206E-1,-6.121234894E-1
5.399039792E0,1.122315526E0,6.391429901E-1,-6.996202469E-1
5.404024219E0,1.087381124E0,5.686991215E-1,-7.356300354E-1
5.409008646E0,1.098745346E0,4.507992268E-1,-6.343526840E-1
5.413993073E0,1.184194803E0,2.906115055E-1,-4.582901001E-1
5.418977552E0,1.319711685E0,4.541587830E-2,-2.219648361E-1
5.423962031E0,1.467711210E0,-2.657907009E-1,2.206897736E-2
5.428946510E0,1.566530108E0,-6.095941067E-1,3.360815048E-1
5.433930990E0,1.587223887E0,-9.814723730E-1,7.774810791E-1
5.438915469E0,1.581747770E0,-1.348441839E0,1.241031647E0
5.443899948E0,1.573344111E0,-1.701622844E0,1.779491425E0
5.448884427E0,1.523046970E0,-2.089850664E0,2.335626602E0
5.453868906E0,1.450122118E0,-2.456991434E0,2.861968040E0
5.458853385E0,1.326328278E0,-2.823935986E0,3.330350876E0
5.463837865E0,1.095411301E0,-3.111171246E0,3.779639244E0
5.468822344E0,8.292750716E-1,-3.335021973E0,4.143332481E0
5.473806823E0,5.281177759E-1,-3.492912769E0,4.340709686E0
5.478791302E0,2.679460645E-1,-3.562585354E0,4.424841881E0
5.483775781E0,1.482263207E-1,-3.559653759E0,4.372077942E0
5.488760260E0,1.205621958E-1,-3.413082123E0,4.173074722E0
5.493744740E0,1.942721605E-1,-3.185080290E0,3.847068787E0
5.498729219E0,3.695036173E-1,-2.889781713E0,3.461121559E0
5.503713698E0,6.946491003E-1,-2.559658527E0,3.024703026E0
5.508698177E0,1.108152151E0,-2.207706690E0,2.456354141E0
5.513682656E0,1.510725498E0,-1.879752994E0,1.818075180E0
5.518667135E0,1.826811552E0,-1.559281111E0,1.166930199E0
5.523651615E0,1.999740839E0,-1.210869908E0,5.216503143E-1
5.528636094E0,2.101419926E0,-9.185786247E-1,-4.655075073E-2
5.533620573E0,2.189356089E0,-6.903569698E-1,-5.142698288E-1
5.538605052E0,2.258821726E0,-5.057076216E-1,-8.485126495E-1
5.543589531E0,2.300764799E0,-3.685455322E-1,-1.040097237E0
5.548574010E0,2.325306177E0,-2.688422203E-1,-1.151477814E0
5.553558490E0,2.295128822E0,-2.065620422E-1,-1.173156738E0
5.558542969E0,2.210825443E0,-2.012450695E-1,-1.114677429E0
5.563527448E0,2.072398424E0,-2.201189995E-1,-9.759483337E-1
5.568511875E0,1.907964826E0,-2.545080185E-1,-7.807788849E-1
5.573496302E0,1.735826015E0,-2.913367748E-1,-5.241680145E-1
5.578480729E0,1.550638080E0,-3.318779469E-1,-3.350152969E-1
5.583465156E0,1.361772299E0,-3.676986694E-1,-2.273035049E-1
5.588449583E0,1.169118762E0,-3.901162148E-1,-1.815834045E-1
5.593434010E0,1.000848532E0,-3.854646683E-1,-1.832952499E-1
5.598418438E0,9.086307883E-1,-3.829314709E-1,-1.462430954E-1
5.603402865E0,8.577712774E-1,-3.682136536E-1,-8.010578156E-2
5.608387292E0,8.141163588E-1,-3.657009602E-1,-8.527565002E-2
5.613371719E0,7.154345512E-1,-3.705091476E-1,-1.425619125E-1
5.618356146E0,6.046205759E-1,-3.826975822E-1,-2.231979370E-1
5.623340573E0,5.055254698E-1,-3.734440804E-1,-3.463134766E-1
5.628325000E0,4.371623099E-1,-3.472793102E-1,-5.071382523E-1
5.633309427E0,4.043234587E-1,-3.180377483E-1,-6.866121292E-1
5.638293854E0,3.690543175E-1,-2.946622372E-1,-8.943996429E-1
5.643278281E0,3.989498913E-1,-2.476987839E-1,-1.073221207E0
5.648262708E0,5.039502382E-1,-1.956992149E-1,-1.189755440E0
5.653247135E0,6.654765010E-1,-1.188719273E-1,-1.248995781E0
5.658231563E0,8.269941807E-1,-6.972885132E-2,-1.274911880E0
5.663215990E0,9.512309432E-1,-3.376865387E-2,-1.262751579E0
5.668200417E0,1.072558045E0,-1.438140869E-3,-1.265133858E0
5.673184844E0,1.201037169E0,3.277063370E-3,-1.296359062E0
5.678169271E0,1.264793754E0,3.308916092E-2,-1.270344734E0
5.683153698E0,1.278100729E0,3.059363365E-2,-1.244572639E0
5.688138125E0,1.226593137E0,4.346346855E-2,-1.185524940E0
5.693122552E0,1.153541923E0,3.770279884E-2,-1.160068512E0
5.698106979E0,1.030111551E0,1.792168617E-2,-1.182466507E0
5.703091406E0,8.990613222E-1,-1.621413231E-2,-1.223887444E0
5.708075833E0,7.834375501E-1,-5.516695976E-2,-1.274765968E0
5.713060260E0,6.490343809E-1,-7.023358345E-2,-1.325553894E0
5.718044688E0,5.335881710E-1,-9.004187584E-2,-1.366730690E0
5.723029115E0,4.413882196E-1,-1.050763130E-1,-1.369620323E0
5.728013542E0,4.056295753E-1,-1.296439171E-1,-1.386896133E0
5.732997969E0,3.832139671E-1,-1.447582245E-1,-1.385022163E0
5.737982396E0,3.882706165E-1,-1.647849083E-1,-1.383156776E0
5.742966823E0,3.730940521E-1,-1.848406792E-1,-1.371753693E0
5.747951250E0,3.715917468E-1,-1.808671951E-1,-1.369975090E0
5.752935677E0,4.031528533E-1,-1.863279343E-1,-1.329986572E0
5.757920104E0,4.250609279E-1,-1.724162102E-1,-1.285323143E0
5.762904531E0,4.473944604E-1,-1.630241871E-1,-1.274249077E0
5.767888958E0,4.228665531E-1,-1.578986645E-1,-1.291984558E0
5.772873385E0,3.470264673E-1,-1.474161148E-1,-1.285895348E0
5.777857813E0,2.774564624E-1,-1.029970646E-1,-1.289457321E0
5.782842240E0,1.994551569E-1,-5.332565308E-2,-1.293119431E0
5.787826667E0,7.918301225E-2,1.125478745E-2,-1.296918869E0
5.792811094E0,-5.022695661E-2,1.098031998E-1,-1.281725883E0
5.797795521E0,-1.462181509E-1,2.086448669E-1,-1.252320290E0
5.802779948E0,-2.137031257E-1,3.124105930E-1,-1.194335938E0
5.807764375E0,-2.291589677E-1,4.065940380E-1,-1.088649750E0
5.812748802E0,-2.071087956E-1,4.957880974E-1,-1.021354675E0
5.817733229E0,-1.953442991E-1,5.844788551E-1,-9.684085846E-1
5.822717656E0,-1.652536690E-1,6.438746452E-1,-9.297704697E-1
5.827702083E0,-9.317055345E-2,7.408137321E-1,-8.384361267E-1
5.832686510E0,2.561751008E-2,8.463571072E-1,-7.135496140E-1
5.837670938E0,1.533425450E-1,9.413151741E-1,-6.172904968E-1
5.842655365E0,1.952139288E-1,1.035225391E0,-5.543689728E-1
5.847639792E0,2.185508162E-1,1.104078770E0,-4.912347794E-1
5.852624219E0,2.523531020E-1,1.195680618E0,-4.661264420E-1
5.857608646E0,2.630991638E-1,1.295812845E0,-5.029497147E-1
5.862593073E0,2.555172741E-1,1.399940014E0,-5.395269394E-1
5.867577500E0,2.390470803E-1,1.479719400E0,-5.759563446E-1
5.872561927E0,2.377542257E-1,1.569020271E0,-6.171112061E-1
5.877546354E0,1.989123076E-1,1.644123554E0,-6.773920059E-1
5.882530781E0,1.608633399E-1,1.705402613E0,-7.377386093E-1
5.887515208E0,1.280425787E-1,1.738728523E0,-7.503910065E-1
5.892499635E0,1.143726259E-1,1.749225140E0,-7.394161224E-1
5.897484063E0,9.067544341E-2,1.717790365E0,-6.761627197E-1
5.902468490E0,9.944456816E-2,1.668434858E0,-5.607233047E-1
5.907452917E0,1.113837510E-1,1.586727142E0,-3.979339600E-1
5.912437344E0,1.357215792E-1,1.506076336E0,-2.260885239E-1
5.917421771E0,1.577591449E-1,1.402555704E0,-4.042053223E-2
5.922406198E0,1.774556637E-1,1.304674625E0,1.830282211E-1
5.927390625E0,2.525232136E-1,1.197914600E0,4.251394272E-1
5.932375052E0,3.594298959E-1,1.081871748E0,6.621055603E-1
5.937359479E0,4.795320034E-1,9.849901199E-1,8.940219879E-1
5.942343906E0,6.562307477E-1,8.688268661E-1,1.101818085E0
5.947328333E0,8.277283311E-1,7.763960361E-1,1.280766487E0
5.952312760E0,9.946647882E-1,6.837563515E-1,1.473957062E0
5.957297188E0,1.186071157E0,5.718309879E-1,1.686141968E0
5.962281615E0,1.407107711E0,4.976844788E-1,1.941303253E0
5.967266042E0,1.615144730E0,3.891341686E-1,2.191670418E0
5.972250469E0,1.777756333E0,2.745230198E-1,2.365621567E0
5.977234896E0,1.857651472E0,1.676645279E-1,2.449050903E0
5.982219323E0,1.864726901E0,7.752323151E-2,2.480484009E0
5.987203750E0,1.803493738E0,-1.533555984E-2,2.488751411E0
5.992188177E0,1.654101133E0,-5.370616913E-2,2.411760330E0
5.997172604E0,1.411002874E0,-3.769683838E-2,2.230502129E0
6.002157031E0,1.164979339E0,1.808381081E-2,1.983431816E0
6.007141458E0,9.729924202E-1,9.466767311E-2,1.646679878E0
6.012125885E0,8.294579983E-1,1.542322636E-1,1.287197113E0
6.017110313E0,7.140330076E-1,2.263567448E-1,9.286890030E-1
6.022094740E0,6.159663200E-1,3.119845390E-1,5.804452896E-1
6.027079167E0,5.679715872E-1,3.979532719E-1,2.660179138E-1
6.032063594E0,5.931730270E-1,4.421164989E-1,3.291416168E-2
6.037048021E0,7.482709885E-1,4.452600479E-1,-1.048517227E-1
6.042032448E0,9.754666686E-1,3.651773930E-1,-1.667718887E-1
6.047016875E0,1.255648732E0,2.454915047E-1,-1.100435257E-1
6.052001302E0,1.575299501E0,4.353475571E-2,2.927780151E-3
6.056985729E0,1.920689940E0,-1.641976833E-1,2.247266769E-1
6.061970156E0,2.277682543E0,-3.589937687E-1,4.979581833E-1
6.066954583E0,2.632145405E0,-5.748202801E-1,8.274955750E-1
6.071939010E0,3.018293142E0,-7.931926250E-1,1.199131966E0
6.076923438E0,3.442511559E0,-1.038784742E0,1.440886497E0
6.081907865E0,3.791758537E0,-1.297620893E0,1.591296196E0
6.086892292E0,4.019264221E0,-1.569982171E0,1.669673920E0
6.091876719E0,4.120895863E0,-1.779273748E0,1.685638428E0
6.096861146E0,4.111186028E0,-1.982796669E0,1.620069504E0
6.101845573E0,3.928307772E0,-2.137443304E0,1.463470459E0
6.106830000E0,3.639823437E0,-2.271782875E0,1.225455284E0
6.111814427E0,3.236484051E0,-2.352220297E0,9.634666443E-1
6.116798854E0,2.818587780E0,-2.407215834E0,7.061491013E-1
6.121783281E0,2.399880409E0,-2.422256708E0,4.343290329E-1
6.126767708E0,2.036636591E0,-2.411300898E0,1.431446075E-1
6.131752135E0,1.742028952E0,-2.340481281E0,-8.617401123E-2
6.136736563E0,1.486251116E0,-2.204680920E0,-2.633562088E-1
6.141720990E0,1.282390833E0,-1.960742235E0,-3.550214767E-1
6.146705417E0,1.134194732E0,-1.671035171E0,-3.899297714E-1
6.151689844E0,1.113075495E0,-1.378723979E0,-3.776798248E-1
6.156674271E0,1.276224136E0,-1.117455125E0,-3.517417908E-1
6.161658698E0,1.537731767E0,-9.590380192E-1,-2.546939850E-1
6.166643125E0,1.812080026E0,-8.370550871E-1,-7.207775116E-2
6.171627552E0,2.080780506E0,-7.667764425E-1,1.914825439E-1
6.176611979E0,2.311088562E0,-6.726881266E-1,4.835567474E-1
6.181596406E0,2.455796480E0,-5.802094936E-1,7.183885574E-1
6.186580833E0,2.520400763E0,-5.192575455E-1,8.963260651E-1
6.191565260E0,2.529080391E0,-4.383087158E-1,9.268150330E-1
6.196546406E0,2.467534065E0,-3.475800753E-1,8.436298370E-1
6.201527552E0,2.354833364E0,-2.761167288E-1,6.756544113E-1
6.206509115E0,2.238480568E0,-1.952974796E-1,4.182062149E-1
6.211491198E0,2.084621191E0,-1.286344528E-1,6.650257111E-2
6.216473854E0,1.940640688E0,-9.930348396E-2,-3.173494339E-1
6.221457135E0,1.815344095E0,-2.518796921E-2,-6.808900833E-1
6.226441094E0,1.646148205E0,1.332426071E-2,-1.029155731E0
6.231425677E0,1.461431503E0,3.627252579E-2,-1.352806091E0
6.236410885E0,1.294468641E0,3.492331505E-2,-1.632932663E0
6.241396667E0,1.092679381E0,4.348921776E-2,-1.869753361E0
6.246382917E0,9.183064103E-1,2.893042564E-2,-2.049083233E0
6.251369531E0,7.457634211E-1,9.708142281E-2,-2.094624996E0
6.256356458E0,6.318877935E-1,-8.186936378E-2,-2.188346863E0
6.261343542E0,6.170830727E-1,-1.874134541E-1,-2.253597260E0
6.266330677E0,6.795512438E-1,-3.152941465E-1,-2.213876724E0
6.271317240E0,7.775145769E-1,-4.324545860E-1,-2.164851189E0
6.276301667E0,8.635623455E-1,-4.864906073E-1,-2.006055355E0
6.281286094E0,8.548765182E-1,-4.392588139E-1,-1.804579258E0
6.286270521E0,8.168372512E-1,-4.203696251E-1,-1.636920452E0
6.291254948E0,8.446899652E-1,-4.730936289E-1,-1.536457062E0
6.296239375E0,9.484967589E-1,-5.308030844E-1,-1.436052322E0
6.301223802E0,1.095173001E0,-5.365645885E-1,-1.345166206E0
6.306208229E0,1.199247599E0,-5.337381363E-1,-1.244600296E0
6.311192656E0,1.246713281E0,-4.938393831E-1,-1.167798996E0
6.316177083E0,1.280522346E0,-4.409731627E-1,-1.143397331E0
6.321161510E0,1.300764918E0,-3.800349236E-1,-1.204788208E0
6.326145938E0,1.331453681E0,-3.203382492E-1,-1.265838623E0
6.331130365E0,1.371931195E0,-2.522097826E-1,-1.336141586E0
6.336114792E0,1.374300241E0,-1.706205606E-1,-1.463566780E0
6.341099219E0,1.300273776E0,-8.932018280E-2,-1.595571518E0
6.346083646E0,1.216738224E0,-2.713131905E-2,-1.741783619E0
6.351068073E0,1.090039611E0,1.647901535E-2,-1.878387928E0
6.356052500E0,9.437249899E-1,4.677200317E-2,-1.981586933E0
6.361036927E0,7.727175355E-1,9.285950661E-2,-2.037168026E0
6.366021354E0,6.195304394E-1,1.072952747E-1,-2.059626102E0
6.371005781E0,4.934112430E-1,1.335048676E-1,-2.044295788E0
6.375990208E0,3.850159347E-1,1.524333954E-1,-1.991237164E0
6.380974635E0,3.090099990E-1,1.880440712E-1,-1.881366253E0
6.385959063E0,2.939713299E-1,2.354264259E-1,-1.714721203E0
6.390943490E0,2.872177958E-1,2.846901417E-1,-1.529553413E0
6.395927917E0,2.693919241E-1,3.307931423E-1,-1.335381508E0
6.400912344E0,2.641247213E-1,4.020743370E-1,-1.113003731E0
6.405896771E0,3.288648427E-1,4.933607578E-1,-8.671474457E-1
6.410881198E0,4.541714489E-1,5.704873800E-1,-6.168241501E-1
6.415865625E0,6.259071231E-1,6.616039276E-1,-3.523492813E-1
6.420850052E0,8.158512115E-1,7.755427361E-1,-9.750843048E-2
6.425834479E0,9.864683747E-1,8.495413065E-1,9.043025970E-2
6.430818906E0,1.109742641E0,9.455146790E-1,1.876859665E-1
6.435803333E0,1.176536918E0,1.053769827E0,2.469835281E-1
6.440787760E0,1.239661694E0,1.202937007E0,2.635841370E-1
6.445773125E0,1.279825211E0,1.345144629E0,2.423114777E-1
6.450756875E0,1.301588058E0,1.490322113E0,1.592264175E-1
6.455740625E0,1.290608525E0,1.605401874E0,9.083747864E-2
6.460724427E0,1.265940309E0,1.738658190E0,1.791286469E-2
6.465708281E0,1.199062943E0,1.885749459E0,-6.441783905E-2
6.470692188E0,1.147646308E0,2.032726526E0,-9.405994415E-2
6.475676198E0,1.126050115E0,2.155836821E0,-9.024047852E-2
6.480660313E0,1.143779755E0,2.250433207E0,-2.432823181E-2
6.485644531E0,1.172101259E0,2.321234703E0,5.579090118E-2
6.490628854E0,1.234871626E0,2.382467747E0,1.883859634E-1
6.495613281E0,1.317525744E0,2.419491291E0,3.351936340E-1
6.500597813E0,1.367377639E0,2.441841364E0,5.535974503E-1
6.505582448E0,1.379870057E0,2.458691597E0,7.622785568E-1
6.510567188E0,1.369830012E0,2.464962006E0,9.134740829E-1
6.515552031E0,1.347051144E0,2.445914268E0,1.021674156E0
6.520536927E0,1.292223454E0,2.420824051E0,1.077350616E0
6.525521875E0,1.228741407E0,2.385023117E0,1.147515297E0
6.530506823E0,1.194562793E0,2.352980137E0,1.260828972E0
6.535491771E0,1.156220555E0,2.310500145E0,1.326342583E0
6.540476719E0,1.152015090E0,2.257601261E0,1.387160301E0
6.545461146E0,1.177166104E0,2.151566505E0,1.457574844E0
6.550445573E0,1.241236210E0,2.040394068E0,1.532774925E0
6.555430000E0,1.339354992E0,1.895499945E0,1.660558701E0
6.560414427E0,1.452567101E0,1.740790248E0,1.726091385E0
6.565398854E0,1.533350348E0,1.562039971E0,1.767687798E0
6.570383281E0,1.543712020E0,1.378618479E0,1.833162308E0
6.575367708E0,1.550582528E0,1.200106978E0,1.917707443E0
6.580352135E0,1.501133919E0,1.002594113E0,2.069128990E0
6.585336563E0,1.424081206E0,8.143420219E-1,2.234830856E0
6.590320990E0,1.343199730E0,6.060857773E-1,2.362305641E0
6.595305417E0,1.263087034E0,4.107142687E-1,2.442165375E0
6.600289844E0,1.168588877E0,2.563402653E-1,2.484158516E0
6.605274271E0,1.054186463E0,1.949471235E-1,2.507581711E0
6.610258698E0,9.288062453E-1,1.922639608E-1,2.493475914E0
6.615243125E0,8.019278049E-1,2.668215036E-1,2.494612694E0
6.620227552E0,7.070716619E-1,3.795340061E-1,2.434627533E0
6.625211979E0,6.682307124E-1,5.155894756E-1,2.261116028E0
6.630196406E0,7.039664984E-1,6.605579853E-1,2.007751465E0
6.635180833E0,8.416288495E-1,7.814676762E-1,1.703269958E0
6.640165260E0,1.051372528E0,9.127545357E-1,1.385841370E0
6.645149688E0,1.304559827E0,1.007666111E0,1.021816254E0
6.650134115E0,1.554426551E0,1.038686752E0,6.206054688E-1
6.655118542E0,1.792312860E0,9.736499786E-1,2.250375748E-1
6.660102969E0,2.037820101E0,7.997543812E-1,-1.795759201E-1
6.665087396E0,2.281568050E0,6.096200943E-1,-5.792951584E-1
6.670071823E0,2.442897558E0,3.811664581E-1,-8.933219910E-1
6.675056250E0,2.503415585E0,1.589789391E-1,-1.112648964E0
6.680040677E0,2.516814232E0,-7.468867302E-2,-1.276094437E0
6.685025104E0,2.465317726E0,-3.473751545E-1,-1.345855713E0
6.690009531E0,2.364613771E0,-6.869292259E-1,-1.293639183E0
6.694993958E0,2.239231110E0,-1.073729396E0,-1.086277008E0
6.699978385E0,2.108359575E0,-1.488669634E0,-7.096004486E-1
6.704962813E0,2.010327101E0,-1.984998703E0,-2.592582703E-1
6.709947240E0,1.863943577E0,-2.496936083E0,2.124452591E-1
6.714931667E0,1.678940058E0,-2.978005409E0,7.059164047E-1
6.719916094E0,1.403047323E0,-3.396794319E0,1.212158203E0
6.724900521E0,9.587599039E-1,-3.473148346E0,1.879974365E0
6.729884948E0,4.920374751E-1,-3.697765350E0,2.461128235E0
6.734869375E0,2.564945221E-1,-4.063138008E0,2.621499062E0
6.739853802E0,1.920578629E-2,-4.436821938E0,2.648921967E0
6.744838229E0,-1.762232482E-1,-4.700426102E0,2.486425400E0
6.749822656E0,-4.302233756E-1,-4.859333992E0,2.220415115E0
6.754807083E0,-7.682362795E-1,-4.832538128E0,1.884497643E0
6.759791510E0,-1.124630213E0,-4.663125992E0,1.555194855E0
6.764775938E0,-1.381601930E0,-4.355929375E0,1.203714371E0
6.769760365E0,-1.550563693E0,-3.920204639E0,8.299083710E-1
6.774744792E0,-1.619269013E0,-3.469806671E0,4.047803879E-1
6.779729219E0,-1.527494907E0,-3.108464718E0,-1.198549271E-1
6.784713646E0,-1.318868160E0,-2.886848450E0,-6.152038574E-1
6.789698073E0,-1.050289989E0,-2.698098421E0,-1.038589478E0
6.794682500E0,-8.069835305E-1,-2.492818117E0,-1.323470116E0
6.799666927E0,-5.831434727E-1,-2.293931723E0,-1.484560013E0
6.804651354E0,-3.916177452E-1,-2.153231859E0,-1.550828934E0
6.809635781E0,-2.355599701E-1,-2.026949406E0,-1.508128166E0
6.814620208E0,-1.038549244E-1,-1.962852240E0,-1.346972466E0
6.819604635E0,3.343242407E-2,-1.922605038E0,-1.167886734E0
6.824589063E0,1.004839987E-1,-1.896921158E0,-9.707784653E-1
6.829573490E0,1.743339598E-1,-1.842989564E0,-7.220993042E-1
6.834557917E0,2.361037582E-1,-1.780686259E0,-5.078105927E-1
6.839542344E0,2.618590295E-1,-1.701160669E0,-2.750835419E-1
6.844526771E0,3.038098514E-1,-1.648337126E0,-3.331851959E-2
6.849511198E0,3.470907509E-1,-1.580208063E0,2.798652649E-1
6.854495625E0,4.007198811E-1,-1.445619106E0,5.785646439E-1
6.859480052E0,4.591935575E-1,-1.265063763E0,8.486642838E-1
6.864464479E0,5.412790775E-1,-1.116509914E0,9.804286957E-1
6.869448906E0,6.465063095E-1,-9.719465375E-1,1.036287308E0
6.874433333E0,7.645049095E-1,-8.126007915E-1,1.092862129E0
6.879417760E0,9.092050791E-1,-5.670654774E-1,1.073645592E0
6.884402188E0,9.944911003E-1,-3.646795750E-1,9.500274658E-1
6.889386615E0,1.011457562E0,-1.907385588E-1,7.125148773E-1
6.894371042E0,9.944221377E-1,2.240550518E-2,4.041824341E-1
6.899355469E0,9.819853306E-1,1.988486052E-1,6.326484680E-2
6.904339896E0,9.697498083E-1,3.253687620E-1,-3.151588440E-1
6.909324323E0,9.240987301E-1,4.125702381E-1,-6.546936035E-1
6.914308750E0,8.548493385E-1,4.804074764E-1,-9.459476471E-1
6.919293177E0,7.571273446E-1,5.534366369E-1,-1.203437805E0
6.924277604E0,6.741015911E-1,5.988454819E-1,-1.403404236E0
6.929262031E0,6.011973023E-1,6.312731504E-1,-1.545960426E0
6.934246458E0,5.621773005E-1,6.126878262E-1,-1.597736359E0
6.939230885E0,5.856593847E-1,5.764266253E-1,-1.611415863E0
6.944215313E0,6.142026782E-1,5.271937847E-1,-1.577463150E0
6.949199740E0,6.332297921E-1,4.648032188E-1,-1.515034676E0
6.954184167E0,6.280696392E-1,3.746150732E-1,-1.390636444E0
6.959168594E0,5.935670137E-1,2.799021006E-1,-1.242501259E0
6.964153021E0,5.247226954E-1,1.994328499E-1,-1.084946632E0
6.969137448E0,4.740052223E-1,1.229437590E-1,-8.748350143E-1
6.974121875E0,4.077554345E-1,3.535008430E-2,-6.934165955E-1
6.979106302E0,3.501558006E-1,-3.053927422E-2,-5.309791565E-1
6.984090729E0,2.773998976E-1,-9.887826443E-2,-4.496393204E-1
6.989075156E0,1.803018153E-1,-1.648361683E-1,-4.636468887E-1
6.994059583E0,3.049799427E-2,-2.138673067E-1,-5.298690796E-1
6.999044010E0,-1.094830260E-1,-2.647620440E-1,-6.769914627E-1
7.004028438E0,-2.441882044E-1,-2.788460255E-1,-8.284549713E-1
7.009012865E0,-3.733112216E-1,-2.844434977E-1,-1.013015747E0
7.013997292E0,-4.917163253E-1,-3.143640757E-1,-1.202044487E0
7.018981719E0,-5.896520615E-1,-3.250105381E-1,-1.400406837E0
7.023966146E0,-6.908950210E-1,-3.446787596E-1,-1.584250450E0
7.028950573E0,-8.096728921E-1,-3.731406927E-1,-1.734500408E0
7.033935000E0,-9.127511382E-1,-3.958221674E-1,-1.879932880E0
7.038919427E0,-9.814142585E-1,-4.508795738E-1,-2.001444340E0
7.043903854E0,-1.064122558E0,-4.900842905E-1,-2.036954403E0
7.048888281E0,-1.093946934E0,-5.470860004E-1,-2.000894070E0
7.053872708E0,-1.046807051E0,-5.984131694E-1,-1.855018139E0
7.058857135E0,-9.323580861E-1,-6.543576717E-1,-1.704558372E0
7.063841563E0,-7.889955640E-1,-6.818992496E-1,-1.597269058E0
7.068825990E0,-5.754365921E-1,-5.811080933E-1,-1.360851288E0
7.073810417E0,-6.009008288E-1,-6.157552600E-1,-1.267968178E0
7.078794844E0,-5.428075194E-1,-6.381510496E-1,-1.265706062E0
7.083779271E0,-4.410002232E-1,-6.055793166E-1,-1.224777222E0
7.088763698E0,-3.331584036E-1,-4.808212519E-1,-1.149848938E0
7.093748125E0,-3.335406184E-1,-3.600455523E-1,-1.136540413E0
7.098732552E0,-3.172423244E-1,-2.432383299E-1,-1.203894615E0
7.103716979E0,-3.321769536E-1,-1.398968697E-1,-1.366147995E0
7.108701406E0,-3.793827891E-1,-3.523433208E-2,-1.599313736E0
7.113685833E0,-4.495593309E-1,6.175720692E-2,-1.855550289E0
7.118670260E0,-5.432418585E-1,1.805615425E-1,-2.091902256E0
7.123654688E0,-6.032099724E-1,3.122600317E-1,-2.255888939E0
7.128639115E0,-6.259108186E-1,4.142603874E-1,-2.424188614E0
7.133623542E0,-7.406844497E-1,4.682875872E-1,-2.592158318E0
7.138607969E0,-8.033954501E-1,4.894620180E-1,-2.750374317E0
7.143592396E0,-8.235000372E-1,5.362324715E-1,-2.860796452E0
7.148576823E0,-8.583755493E-1,5.948261023E-1,-2.875797749E0
7.153561250E0,-9.026913047E-1,6.416685581E-1,-2.838634014E0
7.158545677E0,-8.841845989E-1,7.055165768E-1,-2.749402523E0
7.163530104E0,-8.308802843E-1,7.526667118E-1,-2.617715359E0
7.168514531E0,-7.665879130E-1,7.924525738E-1,-2.500977516E0
7.173498958E0,-7.151435614E-1,8.152689934E-1,-2.408737183E0
7.178483385E0,-7.197567821E-1,8.689637184E-1,-2.307496071E0
7.183467813E0,-7.711378336E-1,9.245512486E-1,-2.130264282E0
7.188452240E0,-8.648100495E-1,9.864070415E-1,-1.934442997E0
7.193436667E0,-9.962600470E-1,1.049437523E0,-1.734342098E0
7.198421094E0,-1.137077093E0,1.108352184E0,-1.563335896E0
7.203405521E0,-1.287133455E0,1.196379662E0,-1.406988144E0
7.208389948E0,-1.426844954E0,1.313383102E0,-1.270036697E0
7.213374375E0,-1.528296471E0,1.391967535E0,-1.138026237E0
7.218358802E0,-1.587647557E0,1.460821629E0,-9.678993225E-1
7.223343229E0,-1.595942736E0,1.500618458E0,-7.787904739E-1
7.228327656E0,-1.563102245E0,1.506502628E0,-6.520023346E-1
7.233312083E0,-1.484399676E0,1.531116009E0,-5.491981506E-1
7.238296510E0,-1.455387235E0,1.579108477E0,-4.511947632E-1
7.243280938E0,-1.433117390E0,1.669572592E0,-3.818931580E-1
7.248265365E0,-1.413214087E0,1.769223690E0,-3.173999786E-1
7.253249792E0,-1.415546060E0,1.873611689E0,-2.243089676E-1
7.258234219E0,-1.459438801E0,2.007238626E0,-1.410446167E-1
7.263218646E0,-1.444141507E0,2.137189388E0,-1.989841461E-2
7.268203073E0,-1.402512908E0,2.230188131E0,1.486110687E-1
7.273187500E0,-1.314536452E0,2.281550169E0,3.165960312E-1
7.278171927E0,-1.223063707E0,2.320330381E0,5.126819611E-1
7.283156354E0,-1.123337030E0,2.332153559E0,8.133716583E-1
7.288140781E0,-9.480895400E-1,2.345353127E0,1.213845253E0
7.293125208E0,-7.064213157E-1,2.359076738E0,1.618527412E0
7.298109635E0,-4.647328854E-1,2.348508120E0,2.013271332E0
7.303094063E0,-2.599021196E-1,2.317603350E0,2.355220795E0
7.308078490E0,-1.052506566E-1,2.313200712E0,2.630304337E0
7.313062917E0,-3.375200927E-2,2.277018070E0,2.790959358E0
7.318047344E0,-2.488091588E-3,2.227818251E0,2.885247231E0
7.323031771E0,-1.197515428E-2,2.170096636E0,2.875074387E0
7.328016198E0,-3.421004117E-2,2.089316368E0,2.837163925E0
7.333000625E0,-9.833678603E-2,2.018882513E0,2.704649925E0
7.337985052E0,-1.947459430E-1,1.987432003E0,2.501598358E0
7.342969479E0,-3.424848616E-1,1.928172588E0,2.309380531E0
7.347953906E0,-4.838701487E-1,1.889231682E0,2.084906578E0
7.352938333E0,-6.089423299E-1,1.842106581E0,1.813841820E0
7.357922760E0,-7.364667654E-1,1.806357622E0,1.534425735E0
7.362907188E0,-8.374658823E-1,1.729678392E0,1.165323257E0
7.367891615E0,-8.882477283E-1,1.622652531E0,6.777372360E-1
7.372876042E0,-9.133952856E-1,1.505804300E0,1.384410858E-1
7.377860469E0,-9.668661356E-1,1.404562473E0,-3.620138168E-1
7.382844896E0,-9.018376470E-1,1.272577524E0,-7.475652695E-1
7.387829323E0,-7.837471366E-1,1.054188490E0,-1.076209068E0
7.392813750E0,-9.475294352E-1,8.841848373E-1,-1.324384689E0
7.397798177E0,-9.366847873E-1,6.670334339E-1,-1.458855152E0
7.402782604E0,-7.550023794E-1,3.508121967E-1,-1.489585400E0
7.407767031E0,-4.511423111E-1,-1.212661266E-1,-1.431218624E0
7.412751458E0,-7.901538908E-2,-6.144189835E-1,-1.207548141E0
7.417735885E0,2.120442092E-1,-1.209879160E0,-9.000720978E-1
7.422720313E0,4.285585284E-1,-1.544310093E0,-3.988437653E-1
7.427704740E0,6.926215887E-1,-2.025421143E0,1.143913269E-1
7.432689167E0,9.780472517E-1,-2.419425964E0,6.589164734E-1
7.437673594E0,1.162293673E0,-2.818287849E0,1.191909790E0
7.442658021E0,1.261226892E0,-3.199256182E0,1.704133034E0
7.447642448E0,1.294908285E0,-3.530241966E0,2.148171425E0
7.452626875E0,1.244469523E0,-3.793801069E0,2.529359818E0
7.457611302E0,1.133659363E0,-3.919857979E0,2.814762115E0
7.462595729E0,9.471411705E-1,-3.943650484E0,2.976278305E0
7.467580156E0,7.216522694E-1,-3.837912560E0,2.971418381E0
7.472564583E0,5.267691016E-1,-3.689807892E0,2.800680161E0
7.477549010E0,4.513606727E-1,-3.504398823E0,2.445219994E0
7.482533438E0,3.881624043E-1,-3.267110825E0,2.029549599E0
7.487517865E0,3.398546278E-1,-2.962927341E0,1.520073891E0
7.492502292E0,4.386295080E-1,-2.609768867E0,9.213495255E-1
7.497486719E0,6.017460823E-1,-2.287547588E0,3.478746414E-1
7.502471146E0,8.339370489E-1,-2.042292356E0,-1.530303955E-1
7.507455573E0,1.084271789E0,-1.829313636E0,-4.384193420E-1
7.512440000E0,1.363889456E0,-1.623208284E0,-5.902585983E-1
7.517424427E0,1.689332366E0,-1.461127520E0,-6.281623840E-1
7.522408854E0,2.014621973E0,-1.328124642E0,-5.763540268E-1
7.527393281E0,2.274377108E0,-1.233386040E0,-4.924430847E-1
7.532377708E0,2.475116968E0,-1.176613569E0,-3.956871033E-1
7.537362135E0,2.574995756E0,-1.114762783E0,-3.243513107E-1
7.542346563E0,2.579525709E0,-1.057745218E0,-1.874322891E-1
7.547330990E0,2.522503138E0,-1.001405835E0,2.475261688E-2
7.552315417E0,2.394263983E0,-8.991042376E-1,2.742023468E-1
7.557299844E0,2.194053888E0,-8.191931248E-1,4.847478867E-1
7.562284271E0,1.963846922E0,-7.007179260E-1,6.328821182E-1
7.567268698E0,1.754926920E0,-6.021643877E-1,7.094116211E-1
7.572253125E0,1.542397738E0,-5.004523993E-1,7.002897263E-1
7.577237552E0,1.320538878E0,-3.676998615E-1,6.249361038E-1
7.582221979E0,1.141009331E0,-2.378281355E-1,5.074176788E-1
7.587206406E0,9.220651388E-1,-1.062591076E-1,2.951984406E-1
7.592190833E0,6.728027463E-1,4.134607315E-2,3.618717194E-2
7.597175260E0,4.359962046E-1,2.149307728E-1,-2.696771622E-1
7.602159688E0,2.494676411E-1,3.814840317E-1,-5.985593796E-1
7.607144115E0,6.512828916E-2,5.654244423E-1,-8.644771576E-1
7.612128542E0,-7.893446833E-2,7.338538170E-1,-1.086785316E0
7.617112969E0,-1.827584356E-1,9.014325142E-1,-1.241699219E0
7.622097396E0,-2.886765599E-1,1.039814949E0,-1.362860680E0
7.627081823E0,-4.055325985E-1,1.134786248E0,-1.474246979E0
7.632066250E0,-5.092031956E-1,1.224656105E0,-1.580652237E0
7.637050677E0,-5.854467750E-1,1.304949760E0,-1.648668766E0
7.642035104E0,-6.153684258E-1,1.366060615E0,-1.683118343E0
7.647019531E0,-6.183558702E-1,1.475065947E0,-1.664931774E0
7.652003958E0,-6.230118871E-1,1.593694806E0,-1.646789074E0
7.656988385E0,-6.050215364E-1,1.674058795E0,-1.599980354E0
7.661972813E0,-5.734350085E-1,1.701807022E0,-1.553224564E0
7.666957240E0,-5.281973481E-1,1.686519027E0,-1.473031044E0
7.671941667E0,-5.408368707E-1,1.709293842E0,-1.392866135E0
7.676926094E0,-5.585004687E-1,1.683898211E0,-1.327058792E0
7.681910521E0,-5.907652974E-1,1.648549199E0,-1.309049606E0
7.686894948E0,-5.990165472E-1,1.569782019E0,-1.305303574E0
7.691879375E0,-6.120000482E-1,1.471664667E0,-1.244088173E0
7.696860625E0,-5.917222500E-1,1.368354917E0,-1.211517334E0
7.701841875E0,-6.004051566E-1,1.221912503E0,-1.198050499E0
7.706823542E0,-6.375774145E-1,1.056507468E0,-1.170226097E0
7.711805729E0,-6.887558699E-1,8.913440704E-1,-1.108945847E0
7.716788490E0,-7.393178344E-1,7.071408033E-1,-9.807462692E-1
7.721771875E0,-7.938290834E-1,5.231051445E-1,-8.957204819E-1
7.726755885E0,-9.004293084E-1,3.102910519E-1,-7.963809967E-1
7.731740521E0,-1.058511734E0,1.353873014E-1,-6.779146194E-1
7.736725729E0,-1.253297687E0,-2.364993095E-3,-5.545749664E-1
7.741711458E0,-1.451503396E0,-9.384894371E-2,-4.406480789E-1
7.746697656E0,-1.672952652E0,-1.873492002E-1,-3.503961563E-1
7.751684219E0,-1.870062947E0,-2.544715405E-1,-3.315639496E-1
7.756671042E0,-2.062283278E0,-3.002305031E-1,-2.835969925E-1
7.761658021E0,-2.173340559E0,-3.059267998E-1,-2.160224915E-1
7.766645052E0,-2.222383022E0,-2.814772129E-1,-2.435913086E-1
7.771631406E0,-2.214010954E0,-2.411073446E-1,-3.327341080E-1
7.776615833E0,-2.128976822E0,-1.988191605E-1,-5.216922760E-1
7.781600260E0,-1.962560534E0,-1.396062374E-1,-7.626256943E-1
7.786584688E0,-1.781449676E0,-7.234048843E-2,-9.886407852E-1
7.791569115E0,-1.614124060E0,3.227138519E-2,-1.218990326E0
7.796553542E0,-1.484525561E0,1.080425978E-1,-1.429903984E0
7.801537969E0,-1.331055641E0,1.605501175E-1,-1.583278656E0
7.806522396E0,-1.140252829E0,1.521215439E-1,-1.650589466E0
7.811506823E0,-9.323105812E-1,9.758412838E-2,-1.636796474E0
7.816491250E0,-6.595721841E-1,-1.282691956E-2,-1.479784012E0
7.821475677E0,-3.605324626E-1,-1.366643906E-1,-1.184385300E0
7.826460104E0,-1.454768479E-1,-2.511724234E-1,-8.796691895E-1
7.831444531E0,-1.029068232E-2,-3.810318708E-1,-5.702638626E-1
7.836428958E0,1.315456480E-1,-5.368485451E-1,-2.463922501E-1
7.841413385E0,2.761844397E-1,-6.766134501E-1,1.083755493E-2
7.846397813E0,3.531942964E-1,-7.580623627E-1,1.107921600E-1
7.851382240E0,3.257272840E-1,-8.294860125E-1,1.111335754E-1
7.856366667E0,2.192590386E-1,-8.434659243E-1,7.278442383E-3
7.861351094E0,9.696540236E-2,-8.383108377E-1,-2.197666168E-1
7.866335521E0,-7.460147142E-3,-8.089410067E-1,-5.603151321E-1
7.871319948E0,-7.507267594E-2,-7.259702682E-1,-1.047804832E0
7.876304375E0,-1.829757392E-1,-5.883560181E-1,-1.610498905E0
7.881288802E0,-3.026563525E-1,-3.850471973E-1,-2.210349083E0
7.886273229E0,-4.771070182E-1,-1.624026299E-1,-2.780694485E0
7.891257656E0,-6.542209983E-1,1.291208267E-1,-3.302838326E0
7.896242083E0,-8.157820702E-1,3.954768181E-1,-3.743772984E0
7.901226510E0,-8.674646616E-1,6.145668030E-1,-4.075353622E0
7.906210938E0,-8.727551699E-1,7.930493355E-1,-4.355588913E0
7.911195365E0,-8.898892999E-1,8.946335316E-1,-4.532467365E0
7.916179792E0,-9.143183827E-1,9.546120167E-1,-4.525297642E0
7.921164219E0,-9.217054248E-1,9.456646442E-1,-4.305984497E0
7.926148646E0,-8.822069168E-1,8.111739159E-1,-3.841495037E0
7.931133073E0,-7.892640829E-1,5.703845024E-1,-3.141654015E0
7.936117500E0,-7.174061537E-1,2.271935940E-1,-2.297292709E0
7.941101927E0,-7.513599992E-1,-1.003017426E-1,-1.441983223E0
7.946087240E0,-8.293597102E-1,-5.043543577E-1,-5.752115250E-1
7.951070885E0,-8.711416721E-1,-9.431005716E-1,2.317829132E-1
7.956054531E0,-8.865329027E-1,-1.365471125E0,1.013089180E0
7.961038229E0,-9.037935734E-1,-1.754426003E0,1.850621223E0
7.966021979E0,-9.371821880E-1,-2.059890509E0,2.773609161E0
7.971005833E0,-9.438831806E-1,-2.327571630E0,3.552923203E0
7.975989792E0,-9.867308140E-1,-2.564474583E0,4.150861740E0
7.980973854E0,-1.071157932E0,-2.753245354E0,4.591788292E0
7.985958073E0,-1.149809837E0,-2.866545200E0,4.809039116E0
7.990942448E0,-1.304255009E0,-2.866902351E0,4.874600410E0
7.995926979E0,-1.501693249E0,-2.730890751E0,4.793354988E0
8.000911615E0,-1.709567428E0,-2.482382298E0,4.684882164E0
8.005896354E0,-1.861890674E0,-2.159466743E0,4.529918671E0
8.010881198E0,-1.945000648E0,-1.771338582E0,4.266177177E0
8.015866094E0,-1.925835252E0,-1.336124539E0,3.903130531E0
8.020851042E0,-1.747280240E0,-9.625262022E-1,3.498052597E0
8.025836042E0,-1.356852055E0,-6.206606030E-1,3.189505577E0
8.030821042E0,-8.309165239E-1,-2.523280978E-1,2.972470284E0
8.035806042E0,-2.647231817E-1,8.079087734E-2,2.846755981E0
8.040790625E0,2.851745486E-1,3.977291584E-1,2.797913551E0
8.045775052E0,8.103275299E-1,6.792420149E-1,2.730215073E0
8.050759479E0,1.215391397E0,8.961244822E-1,2.701125145E0
8.055743906E0,1.495439410E0,1.018996239E0,2.720225334E0
8.060728333E0,1.659757733E0,1.089676619E0,2.739753723E0
8.065712760E0,1.746217489E0,1.169211626E0,2.635472298E0
8.070697188E0,1.730558991E0,1.299748421E0,2.402833939E0
8.075681615E0,1.650374770E0,1.433139682E0,2.032454491E0
8.080666042E0,1.572373867E0,1.584298730E0,1.514899254E0
8.085650469E0,1.472575068E0,1.715670943E0,9.172582626E-1
8.090634896E0,1.379763842E0,1.819118619E0,3.112545013E-1
8.095619323E0,1.322793245E0,1.905901313E0,-2.267332077E-1
8.100603750E0,1.283196092E0,1.948745131E0,-7.112712860E-1
8.105588177E0,1.257492661E0,1.972960353E0,-1.156910896E0
8.110572604E0,1.165553451E0,1.946432352E0,-1.539953232E0
8.115557031E0,1.031806469E0,1.903724790E0,-1.879751682E0
8.120541458E0,8.755978346E-1,1.845934033E0,-2.123919010E0
8.125525885E0,7.254175544E-1,1.783304930E0,-2.267907143E0
8.130510313E0,6.339576840E-1,1.730491996E0,-2.278428078E0
8.135494740E0,6.108198166E-1,1.639599562E0,-2.208264828E0
8.140479167E0,6.272698641E-1,1.529437423E0,-2.014439106E0
8.145463594E0,6.018637419E-1,1.399251938E0,-1.749612331E0
8.150448021E0,5.297449827E-1,1.262535453E0,-1.452012062E0
8.155432448E0,4.243646562E-1,1.142537475E0,-1.135931969E0
8.160416875E0,2.898429632E-1,1.009820342E0,-8.252048492E-1
8.165401302E0,1.977715045E-1,8.873826265E-1,-5.196990967E-1
8.170385729E0,9.527169913E-2,7.888888121E-1,-2.240982056E-1
8.175370156E0,2.065113932E-2,7.423846722E-1,9.516334534E-2
8.180354583E0,3.153447062E-2,7.086695433E-1,4.142513275E-1
8.185339010E0,8.051558584E-2,6.871608496E-1,6.854047775E-1
8.190323438E0,1.825240254E-1,7.250473499E-1,9.278755188E-1
8.195307865E0,3.143868446E-1,7.597718239E-1,1.060425758E0
8.200292292E0,4.287586808E-1,8.293888569E-1,1.140596390E0
8.205276719E0,5.262306929E-1,9.145174026E-1,1.115864754E0
8.210261146E0,6.019420028E-1,1.005779862E0,1.010253906E0
8.215245573E0,6.411260962E-1,1.079565406E0,8.955755234E-1
8.220230000E0,6.861552596E-1,1.069407105E0,7.335424423E-1
8.225214427E0,6.556967497E-1,1.018817067E0,5.480909348E-1
8.230198854E0,5.639216304E-1,9.523333311E-1,3.822307587E-1
8.235183281E0,4.826426208E-1,8.990384340E-1,2.598133087E-1
8.240167708E0,4.356818795E-1,8.303300142E-1,1.855602264E-1
8.245152135E0,3.414573371E-1,6.750645638E-1,1.354312897E-1
8.250136563E0,1.467781365E-1,5.005682707E-1,9.502124786E-2
8.255120990E0,-4.280749708E-2,3.019355536E-1,1.217279434E-1
8.260105417E0,-2.317188978E-1,1.315013170E-1,1.772527695E-1
8.265089844E0,-3.768342137E-1,-6.845796108E-2,1.946544647E-1
8.270074271E0,-4.596104324E-1,-3.794049025E-1,1.214160919E-1
8.275058698E0,-4.899375737E-1,-7.484881878E-1,-3.279304504E-2
8.280043125E0,-5.396779776E-1,-1.098908663E0,-2.009410858E-1
8.285027552E0,-6.278909445E-1,-1.306037426E0,-3.304471970E-1
8.290011979E0,-7.886292338E-1,-1.407645106E0,-4.549379349E-1
8.294996406E0,-8.260962963E-1,-1.465628624E0,-5.744886398E-1
8.299980833E0,-7.795397639E-1,-1.512707233E0,-6.844615936E-1
8.304965260E0,-6.593390107E-1,-1.557702899E0,-7.323989868E-1
8.309949688E0,-3.892989457E-1,-1.609479547E0,-7.185115814E-1
8.314934115E0,-6.509173661E-2,-1.710674405E0,-6.429586411E-1
8.319918542E0,3.231768906E-1,-1.841852665E0,-4.771766663E-1
8.324902969E0,6.894426346E-1,-1.931251287E0,-2.930173874E-1
8.329887396E0,1.000834227E0,-2.031691313E0,3.824234009E-4
8.334871823E0,1.296487331E0,-2.090761662E0,2.498855591E-1
8.339856250E0,1.524435401E0,-2.118027210E0,4.411859512E-1
8.344840677E0,1.718579769E0,-2.113269091E0,6.173553467E-1
8.349825104E0,1.837218642E0,-2.014301300E0,8.166494370E-1
8.354809531E0,1.915078640E0,-1.816658020E0,1.039060593E0
8.359793958E0,1.905697942E0,-1.573675275E0,1.198562622E0
8.364778385E0,1.810090423E0,-1.290797114E0,1.314451218E0
8.369762813E0,1.666462183E0,-1.030948400E0,1.367774010E0
8.374747240E0,1.412175179E0,-7.613289356E-1,1.382650375E0
8.379731667E0,1.113223672E0,-5.303287506E-1,1.277941704E0
8.384716094E0,7.876609564E-1,-3.190727234E-1,1.053866386E0
8.389700521E0,4.728156328E-1,-1.894500256E-1,7.679357529E-1
8.394684948E0,1.862890422E-1,-1.025879383E-1,4.679870605E-1
8.399669375E0,-3.546286374E-2,-3.828108311E-2,1.252031326E-1
8.404653802E0,-1.991676688E-1,2.401173115E-2,-2.127342224E-1
8.409638229E0,-2.349304259E-1,7.621514797E-2,-4.647274017E-1
8.414622656E0,-1.156344041E-1,1.345890760E-1,-5.402507782E-1
8.419607083E0,1.729851514E-1,1.624134779E-1,-3.009748459E-1
8.424591510E0,6.139192581E-1,8.353686333E-2,1.810197830E-1
8.429575938E0,1.109183192E0,2.768039703E-3,7.764892578E-1
8.434560365E0,1.603260875E0,-1.197185516E-1,1.758196831E0
8.439544792E0,2.087340832E0,-2.020050883E-1,3.102360725E0
8.444529219E0,2.527302027E0,-1.635975838E-1,4.259242058E0
8.449513646E0,2.933496952E0,5.987286568E-3,4.995060921E0
8.454498073E0,3.192161083E0,2.038292885E-1,5.358263969E0
8.459482500E0,3.385955572E0,4.386223555E-1,5.267927170E0
8.464466927E0,3.487817526E0,6.867760420E-1,4.963528633E0
8.469451354E0,3.528317213E0,9.206832647E-1,4.459420204E0
8.474435781E0,3.445446253E0,1.142052889E0,3.856052399E0
8.479420208E0,3.256385565E0,1.290382266E0,3.249096870E0
8.484404635E0,3.011518478E0,1.443985224E0,2.671957970E0
8.489389063E0,2.723712444E0,1.556017756E0,2.105439186E0
8.494373490E0,2.421802998E0,1.641773343E0,1.625963211E0
8.499357917E0,2.148977757E0,1.711489439E0,1.223790169E0
8.504342344E0,1.852806211E0,1.727575779E0,8.318014145E-1
8.509326771E0,1.571802616E0,1.714603305E0,5.025205612E-1
8.514311198E0,1.296412826E0,1.658535004E0,2.214899063E-1
8.519295625E0,1.055433273E0,1.631184340E0,7.774353027E-3
8.524280052E0,8.394383192E-1,1.551125765E0,-1.387100220E-1
8.529264479E0,6.533257961E-1,1.461111665E0,-2.275762558E-1
8.534248906E0,4.778566957E-1,1.360701323E0,-3.018789291E-1
8.539233333E0,3.228476048E-1,1.235202074E0,-3.615970612E-1
8.544217760E0,1.693972945E-1,1.069789648E0,-4.688615799E-1
8.549202188E0,-3.964352608E-2,9.215573072E-1,-6.331319809E-1
8.554186615E0,-2.133196592E-1,7.187188864E-1,-8.590955734E-1
8.559171042E0,-4.043940604E-1,5.141190290E-1,-1.156237602E0
8.564155469E0,-6.177244782E-1,2.888617516E-1,-1.481433868E0
8.569139896E0,-8.771346807E-1,9.606707096E-2,-1.806003094E0
8.574124323E0,-1.154260397E0,-7.358515263E-2,-2.062999249E0
8.579108750E0,-1.339418650E0,-2.486435175E-1,-2.324242592E0
8.584093177E0,-1.481537700E0,-4.144860506E-1,-2.556244850E0
8.589077604E0,-1.563338518E0,-5.661372542E-1,-2.739882946E0
8.594062031E0,-1.644873381E0,-7.652128339E-1,-2.846536160E0
8.599046458E0,-1.616649389E0,-1.183957577E0,-3.029314518E0
8.604030885E0,-1.596401334E0,-1.501914501E0,-3.173374653E0
8.609015313E0,-1.602311730E0,-1.714331985E0,-3.192726135E0
8.613999740E0,-1.692181587E0,-1.778350234E0,-3.063587666E0
8.618984167E0,-1.813890815E0,-1.780681729E0,-2.752570629E0
8.623968594E0,-1.895437002E0,-1.822941184E0,-2.427084923E0
8.628953021E0,-1.945214987E0,-1.916002512E0,-2.182571411E0
8.633937448E0,-1.961972237E0,-2.022701979E0,-2.047413349E0
8.638921875E0,-1.987951159E0,-2.053004026E0,-1.959119320E0
8.643906302E0,-1.956051588E0,-2.026518822E0,-1.965311527E0
8.648890729E0,-1.942531705E0,-1.900462270E0,-2.094452381E0
8.653882865E0,-1.999693990E0,-1.717818260E0,-2.360680580E0
8.658859844E0,-2.093695164E0,-1.520261049E0,-2.720990658E0
8.663837083E0,-2.205453634E0,-1.292217016E0,-3.051103592E0
8.668814896E0,-2.239843130E0,-1.041620135E0,-3.274829865E0
8.673793490E0,-2.240168333E0,-7.575408220E-1,-3.421290398E0
8.678773073E0,-2.172726870E0,-4.526966810E-1,-3.591434002E0
8.683753802E0,-2.146942139E0,-1.160130501E-1,-3.675689220E0
8.688735781E0,-2.167183876E0,1.726033688E-1,-3.650712490E0
8.693719063E0,-2.286159277E0,3.998947144E-1,-3.512222767E0
8.698703646E0,-2.528671741E0,5.476117134E-1,-3.294120789E0
8.703689479E0,-2.809570789E0,5.970077515E-1,-3.106644630E0
8.708676458E0,-3.053271532E0,5.726754665E-1,-2.916492462E0
8.713664427E0,-3.156165600E0,4.561388493E-1,-2.747755527E0
8.718653177E0,-3.205960274E0,2.819430828E-1,-2.548078060E0
8.723642500E0,-2.973745346E0,1.083500385E-1,-2.179050446E0
8.728632188E0,-2.435923100E0,-9.752941132E-2,-1.598014355E0
8.733622031E0,-1.731868386E0,-3.690018654E-1,-8.243398666E-1
8.738610729E0,-9.564386606E-1,-7.353845835E-1,1.763248444E-2
8.743595156E0,-2.925110459E-1,-1.116788268E0,8.372926712E-1
8.748579583E0,1.440931559E-1,-1.452476025E0,1.706689835E0
8.753564010E0,5.466884971E-1,-1.849173784E0,2.640468597E0
8.758548438E0,8.495583534E-1,-2.274971008E0,3.581565857E0
8.763532865E0,9.920299649E-1,-2.675116062E0,4.525817871E0
8.768517292E0,9.089805484E-1,-2.966657400E0,5.387802124E0
8.773501719E0,6.357469559E-1,-3.110277176E0,6.024881363E0
8.778486146E0,1.393406391E-1,-3.085319042E0,6.323218346E0
8.783470573E0,-5.333368182E-1,-2.937292337E0,6.221624374E0
8.788455000E0,-1.236474037E0,-2.705874920E0,5.701899529E0
8.793439427E0,-1.788102627E0,-2.400593281E0,4.855648041E0
8.798423854E0,-2.136067867E0,-1.986352086E0,3.759644508E0
8.803408281E0,-2.274331808E0,-1.475007296E0,2.576319695E0
8.808392708E0,-2.147344351E0,-8.443242311E-1,1.448537827E0
8.813377135E0,-1.831794500E0,-1.294922829E-1,4.902057648E-1
8.818361563E0,-1.417942643E0,5.862276554E-1,-2.470445633E-1
8.823345990E0,-8.515150547E-1,1.123685837E0,-8.120355606E-1
8.828330417E0,-6.356194615E-2,1.446398497E0,-1.128949165E0
8.833314844E0,7.563695908E-1,1.616881371E0,-1.131257057E0
8.838299271E0,1.427728653E0,1.667680502E0,-8.669576645E-1
8.843283698E0,1.865373135E0,1.726274967E0,-4.794473648E-1
8.848268125E0,2.079069853E0,1.742811680E0,-1.022872925E-1
8.853252552E0,2.183093786E0,1.739551544E0,1.836748123E-1
8.858236979E0,2.186885595E0,1.705456972E0,3.932752609E-1
8.863221406E0,2.143085003E0,1.730293274E0,5.364542007E-1
8.868205833E0,2.076169252E0,1.765322685E0,5.034933090E-1
8.873190260E0,1.919836998E0,1.810254812E0,2.851066589E-1
8.878174688E0,1.711921930E0,1.875023842E0,-1.233129501E-1
8.883159115E0,1.480365276E0,1.936576366E0,-5.734481812E-1
8.888143542E0,1.257663488E0,2.014726639E0,-1.012760162E0
8.893127969E0,1.114841700E0,2.067441463E0,-1.417578697E0
8.898112396E0,1.042793512E0,2.095463753E0,-1.797699451E0
8.903096823E0,9.936940074E-1,2.109447718E0,-2.201253891E0
8.908081250E0,9.815697074E-1,2.129893541E0,-2.571175098E0
8.913065677E0,9.683266878E-1,2.134275913E0,-2.879199505E0
8.918050104E0,1.016510248E0,2.138099909E0,-3.120958328E0
8.923034531E0,1.126128793E0,2.123416662E0,-3.272962570E0
8.928018958E0,1.258897066E0,2.091320992E0,-3.239983559E0
8.933003385E0,1.323928833E0,2.051617622E0,-2.960145950E0
8.937987813E0,1.273508549E0,1.975149632E0,-2.491014004E0
8.942972240E0,1.117091894E0,1.856274128E0,-1.913853168E0
8.947956667E0,9.359850287E-1,1.674776554E0,-1.367158890E0
8.952941094E0,7.728087306E-1,1.458397627E0,-8.505744934E-1
8.957925521E0,6.266916990E-1,1.225623608E0,-3.590517044E-1
8.962909948E0,4.927282929E-1,1.028244019E0,1.937704086E-1
8.967894375E0,3.905208707E-1,8.890721798E-1,7.937412262E-1
8.972878802E0,3.153909743E-1,7.833130360E-1,1.283191681E0
8.977863229E0,2.732057571E-1,6.381230354E-1,1.729442596E0
8.982847656E0,2.268791199E-1,4.861686230E-1,2.046618462E0
8.987832083E0,2.057131529E-1,3.365120888E-1,2.292351723E0
8.992816510E0,2.100435197E-1,1.742987633E-1,2.552895546E0
8.997800938E0,2.114523351E-1,7.062649727E-2,2.904868126E0
9.002785365E0,1.630782783E-1,5.390167236E-3,3.128311157E0
9.007769792E0,2.316415310E-2,-3.659415245E-2,3.180457115E0
9.012754219E0,-1.177803874E-1,-7.446479797E-2,3.051956177E0
9.017738646E0,-2.467811108E-1,-9.798717499E-2,2.723800659E0
9.022723073E0,-3.557470441E-1,-1.347522736E-1,2.339514732E0
9.027707500E0,-4.976999462E-1,-1.742646694E-1,1.951585770E0
9.032691927E0,-6.199843884E-1,-2.250773907E-1,1.588479996E0
9.037676354E0,-7.365989685E-1,-2.485606670E-1,1.321814537E0
9.042660781E0,-8.484799862E-1,-2.537419796E-1,1.065287590E0
9.047645208E0,-8.756219149E-1,-2.827227116E-1,8.426132202E-1
9.052629635E0,-7.853164673E-1,-3.683582544E-1,6.631908417E-1
9.057614063E0,-6.682034731E-1,-5.102007389E-1,5.172882080E-1
9.062598490E0,-5.237164497E-1,-6.887749434E-1,4.478120804E-1
9.067582917E0,-3.854622841E-1,-9.320877790E-1,4.832000732E-1
9.072567344E0,-2.676890194E-1,-1.206285834E0,5.849781036E-1
9.077551771E0,-1.413596869E-1,-1.492045641E0,6.764926910E-1
9.082536198E0,-6.302821636E-2,-1.760495901E0,7.911577225E-1
9.087520625E0,2.027320862E-2,-1.987828016E0,9.289541245E-1
9.092505052E0,8.026012778E-2,-2.174281836E0,1.085103989E0
9.097489479E0,1.359156966E-1,-2.358299017E0,1.269189835E0
9.102473906E0,2.067080140E-1,-2.492500782E0,1.443019867E0
9.107458333E0,2.024698853E-1,-2.567820072E0,1.625823021E0
9.112442760E0,1.245391667E-1,-2.537389517E0,1.736462593E0
9.117427188E0,-3.087443113E-2,-2.416664124E0,1.770455360E0
9.122411615E0,-1.913224459E-1,-2.211417198E0,1.713749886E0
9.127396042E0,-2.424032092E-1,-1.979524612E0,1.466142654E0
9.132380469E0,-2.194805741E-1,-1.744791985E0,1.061386108E0
9.137364896E0,-1.386946440E-1,-1.491594791E0,4.898614883E-1
9.142349323E0,-1.594799757E-2,-1.232572317E0,4.313182831E-2
9.147333750E0,1.667812467E-1,-9.524576664E-1,-2.791585922E-1
9.152318177E0,3.316873014E-1,-6.739540100E-1,-4.296102524E-1
9.157302604E0,5.065422058E-1,-4.631674290E-1,-4.899168015E-1
9.162287031E0,6.386745572E-1,-3.193734884E-1,-4.603309631E-1
9.167271458E0,6.997719407E-1,-2.039828300E-1,-2.979593277E-1
9.172255885E0,7.293741107E-1,-9.325194359E-2,4.969882965E-2
9.177240313E0,7.437587380E-1,7.040262222E-3,5.682973862E-1
9.182224740E0,7.348797321E-1,2.865529060E-2,1.076187134E0
9.187209167E0,6.455841064E-1,-1.505208015E-2,1.454081535E0
9.192193594E0,4.990847111E-1,-1.469039917E-2,1.769280434E0
9.197178021E0,3.579122424E-1,2.832520008E-2,2.151274681E0
9.202162448E0,2.606424093E-1,1.458407640E-1,2.495076180E0
9.207146875E0,1.786106676E-1,3.173559904E-1,2.753135681E0
9.212131302E0,9.713906050E-2,5.132859945E-1,2.863521576E0
9.217115729E0,5.932483077E-2,6.951801777E-1,2.859888077E0
9.222100156E0,1.412318647E-1,8.630936146E-1,2.708868027E0
9.227084583E0,2.658858299E-1,1.041500330E0,2.472692490E0
9.232069010E0,4.515072703E-1,1.216847539E0,2.189576149E0
9.237053438E0,7.018348575E-1,1.361452818E0,1.912009239E0
9.242037865E0,1.030615807E0,1.481250405E0,1.687608719E0
9.247022292E0,1.418961167E0,1.572392583E0,1.578304291E0
9.252006719E0,1.848289251E0,1.592103362E0,1.650853157E0
9.256991146E0,2.185213566E0,1.611618638E0,1.799914360E0
9.261975573E0,2.435247421E0,1.587306142E0,1.972876549E0
9.266960000E0,2.579010010E0,1.460626841E0,2.342105865E0
9.271944427E0,2.658566713E0,1.252497911E0,2.683183670E0
9.276928854E0,2.684148312E0,1.071283698E0,2.766883850E0
9.281913281E0,2.585266829E0,9.304503202E-1,2.627129555E0
9.286897708E0,2.358218670E0,8.345310688E-1,2.254663467E0
9.291882135E0,2.046453476E0,7.509434223E-1,1.683109283E0
9.296866563E0,1.684408784E0,6.471048594E-1,1.027335167E0
9.301850990E0,1.300945401E0,5.913820267E-1,3.733100891E-1
9.306835417E0,9.628875852E-1,5.850510597E-1,-2.648305893E-1
9.311819844E0,6.220191717E-1,5.673084259E-1,-9.495191574E-1
9.316804271E0,3.113898933E-1,5.922064781E-1,-1.609213829E0
9.321788698E0,2.614858747E-2,5.897812843E-1,-2.186937332E0
9.326773125E0,-2.095198035E-1,5.802991390E-1,-2.668716908E0
9.331757552E0,-3.814516664E-1,5.648555756E-1,-3.011892796E0
9.336741979E0,-4.897564650E-1,5.585186481E-1,-3.269445419E0
9.341726406E0,-5.443131924E-1,5.091755390E-1,-3.432062149E0
9.346710833E0,-5.454620123E-1,4.459207058E-1,-3.476056099E0
9.351695260E0,-5.460718870E-1,3.784220219E-1,-3.430315018E0
9.356679688E0,-5.266677141E-1,3.109462261E-1,-3.275742531E0
9.361664115E0,-5.060181618E-1,2.329967022E-1,-3.031419277E0
9.366648542E0,-4.845345020E-1,1.484467983E-1,-2.792879581E0
9.371632969E0,-4.869661927E-1,9.001731873E-2,-2.535992622E0
9.376617396E0,-4.903054833E-1,5.696034431E-2,-2.317968369E0
9.381601823E0,-4.665960073E-1,4.384946823E-2,-2.105108261E0
9.386586250E0,-3.728809655E-1,4.983854294E-2,-1.849392414E0
9.391570677E0,-2.423038781E-1,5.037450790E-2,-1.589010239E0
9.396555104E0,-1.318306625E-1,7.826638222E-2,-1.376433372E0
9.401539531E0,-2.680701017E-2,9.959101677E-2,-1.206732750E0
9.406523958E0,4.418227077E-2,1.330702305E-1,-1.089328766E0
9.411508385E0,8.568528295E-2,1.931347847E-1,-1.033726692E0
9.416492813E0,8.824154735E-2,2.701835632E-1,-1.068541527E0
9.421477240E0,5.209520459E-2,3.837351799E-1,-1.141151428E0
9.426461667E0,6.298899651E-3,5.009367466E-1,-1.213416100E0
9.431446094E0,-2.009710670E-2,5.983326435E-1,-1.285454750E0
9.436430521E0,-8.429017663E-2,7.049043179E-1,-1.328643799E0
9.441414948E0,-1.482909918E-1,8.065576553E-1,-1.347854614E0
9.446395625E0,-1.978930235E-1,8.893737793E-1,-1.343210220E0
9.451376302E0,-2.572344542E-1,9.963068962E-1,-1.319489479E0
9.456357396E0,-3.029892445E-1,1.113288879E0,-1.281550407E0
9.461339010E0,-2.732600272E-1,1.221327543E0,-1.176834106E0
9.466321250E0,-1.630595922E-1,1.291780710E0,-1.024577141E0
9.471304167E0,-4.411458969E-2,1.353327751E0,-8.391771317E-1
9.476287813E0,8.401674032E-2,1.405759573E0,-6.493349075E-1
9.481272188E0,2.165264785E-1,1.444096088E0,-4.502210617E-1
9.486257292E0,3.151756227E-1,1.473063946E0,-2.944364548E-1
9.491243073E0,4.417997003E-1,1.477968216E0,-9.573650360E-2
9.496229427E0,6.101698875E-1,1.449059010E0,1.172142029E-1
9.501216250E0,7.817120552E-1,1.391050816E0,3.635721207E-1
9.506203438E0,9.467869997E-1,1.284479380E0,6.625318527E-1
9.511190833E0,1.105950713E0,1.157583714E0,9.758815765E-1
9.516178333E0,1.288125157E0,9.954814911E-1,1.270270348E0
9.521165833E0,1.479194164E0,8.312866688E-1,1.536261559E0
9.526150313E0,1.650934935E0,6.360104084E-1,1.783520699E0
9.531134792E0,1.760795116E0,4.237849712E-1,1.973869324E0
9.536119219E0,1.786131859E0,1.845207214E-1,2.179206848E0
9.541103646E0,1.747202754E0,4.689979553E-2,2.289608955E0
9.546088073E0,1.635052562E0,-1.338982582E-2,2.252656937E0
9.551072500E0,1.410941005E0,2.287769318E-2,1.958558083E0
9.556056927E0,1.197910547E0,6.565332413E-2,1.507928848E0
9.561041354E0,1.042199850E0,9.717106819E-2,1.063310623E0
9.566025781E0,9.910097718E-1,1.187343597E-1,6.291532516E-1
9.571010208E0,9.626772404E-1,1.171381474E-1,2.673025131E-1
9.575994635E0,9.425597191E-1,1.029856205E-1,-3.697586060E-2
9.580979063E0,9.059594870E-1,1.015100479E-1,-2.219562531E-1
9.585963490E0,8.952761292E-1,9.428167343E-2,-2.975606918E-1
9.590947917E0,8.671413660E-1,5.796313286E-2,-2.688999176E-1
9.595932344E0,8.551554680E-1,1.691651344E-2,-2.032222748E-1
9.600916771E0,8.788074851E-1,-6.206250191E-2,-1.007061005E-1
9.605901198E0,9.197086096E-1,-2.075178623E-1,1.102323532E-1
9.610885625E0,9.503232241E-1,-3.859114647E-1,4.293670654E-1
9.615870052E0,1.005483150E0,-5.453982353E-1,8.041009903E-1
9.620854479E0,1.119159341E0,-8.296439648E-1,1.138722420E0
9.625838906E0,1.234196186E0,-1.104746461E0,1.500253677E0
9.630823333E0,1.299187660E0,-1.380723476E0,1.845663071E0
9.635807760E0,1.281659126E0,-1.663183451E0,2.261235237E0
9.640792188E0,1.211154580E0,-1.929375291E0,2.670668602E0
9.645776615E0,1.040111661E0,-2.142455578E0,3.093520164E0
9.650761042E0,7.541229129E-1,-2.251655102E0,3.496858597E0
9.655745469E0,3.149926066E-1,-2.187060356E0,3.709069252E0
9.660729896E0,-2.630181909E-1,-1.954954267E0,3.635156631E0
9.665714323E0,-8.041722775E-1,-1.613224030E0,3.242209435E0
9.670698750E0,-1.223907471E0,-1.242817044E0,2.659726143E0
9.675683177E0,-1.466286659E0,-8.094065189E-1,1.945177078E0
9.680667604E0,-1.599509239E0,-3.304150105E-1,1.122171402E0
9.685652031E0,-1.715058804E0,6.242990494E-2,3.719186783E-1
9.690636458E0,-1.783890486E0,4.043357372E-1,-7.665538788E-2
9.695622292E0,-1.810433865E0,7.491641045E-1,-4.443330765E-1
9.700605313E0,-1.819784999E0,1.060064554E0,-6.789722443E-1
9.705588385E0,-1.755699635E0,1.285429955E0,-7.570505142E-1
9.710571563E0,-1.608994246E0,1.402004480E0,-6.980381012E-1
9.715554844E0,-1.364908218E0,1.381727219E0,-4.687976837E-1
9.720538281E0,-1.074713469E0,1.243904829E0,-6.960391998E-2
9.725521927E0,-8.372569084E-1,9.880261421E-1,5.090379715E-1
9.730505781E0,-6.658610702E-1,6.802341938E-1,1.152409554E0
9.735489896E0,-5.501357317E-1,3.286712170E-1,1.822621346E0
9.740474271E0,-4.464820027E-1,-5.370640755E-2,2.505727768E0
9.745458906E0,-3.450947404E-1,-4.115717411E-1,3.221459389E0
9.750443750E0,-2.985533476E-1,-7.232147455E-1,3.860389709E0
9.755428802E0,-3.792389035E-1,-9.573532343E-1,4.318013191E0
9.760414010E0,-4.404214025E-1,-1.201535583E0,4.508906364E0
9.765399323E0,-4.634853303E-1,-1.452471018E0,4.505508423E0
9.770384740E0,-4.961942732E-1,-1.672711134E0,4.351249695E0
9.775370208E0,-5.296234488E-1,-1.776726007E0,4.094267845E0
9.780355677E0,-5.742220879E-1,-1.774071932E0,3.662937164E0
9.785340573E0,-6.267199516E-1,-1.649787426E0,3.071708679E0
9.790325000E0,-6.445285678E-1,-1.483872175E0,2.325220108E0
9.795309427E0,-5.985718966E-1,-1.317891479E0,1.590641975E0
9.800293854E0,-5.023491979E-1,-1.164859176E0,8.723506927E-1
9.805278281E0,-3.700729609E-1,-1.032883406E0,2.369050980E-1
9.810262708E0,-2.440528870E-1,-9.544767141E-1,-2.395658493E-1
9.815247135E0,-1.666776538E-1,-8.714413643E-1,-7.248821259E-1
9.820231563E0,-1.520759463E-1,-8.067452908E-1,-1.161911964E0
9.825215990E0,-2.139195204E-1,-7.070103884E-1,-1.565318584E0
9.830200417E0,-2.845211625E-1,-6.292109489E-1,-1.877937794E0
9.835184844E0,-3.491351604E-1,-5.108044147E-1,-2.123936653E0
9.840169271E0,-4.600402713E-1,-4.330008030E-1,-2.322606087E0
9.845153698E0,-5.736293197E-1,-4.003305435E-1,-2.474113464E0
9.850138125E0,-7.232241035E-1,-3.791589737E-1,-2.578571796E0
9.855122552E0,-9.327065945E-1,-3.458313942E-1,-2.635968685E0
9.860106979E0,-1.131021976E0,-3.245508671E-1,-2.708406925E0
9.865091406E0,-1.299441457E0,-3.011362553E-1,-2.743183613E0
9.870075833E0,-1.434203267E0,-2.710301876E-1,-2.768908024E0
9.875060260E0,-1.507332563E0,-2.440066338E-1,-2.790267467E0
9.880044688E0,-1.552835703E0,-2.010519505E-1,-2.773726940E0
9.885029115E0,-1.585473537E0,-1.518638134E-1,-2.724054813E0
9.890013542E0,-1.571947932E0,-6.792402267E-2,-2.655577183E0
9.894997969E0,-1.517138720E0,7.470846176E-3,-2.582599163E0
9.899982396E0,-1.449406743E0,5.044245720E-2,-2.514717579E0
9.904966823E0,-1.363918543E0,1.135149002E-1,-2.384938240E0
9.909951250E0,-1.289323449E0,1.869747639E-1,-2.293733597E0
9.914935677E0,-1.239240766E0,2.468893528E-1,-2.207620621E0
9.919920104E0,-1.217399478E0,3.075535297E-1,-2.097948074E0
9.924904531E0,-1.199318409E0,3.690738678E-1,-2.036548615E0
9.929888958E0,-1.194362044E0,4.315037727E-1,-1.970782757E0
9.934873385E0,-1.173546791E0,5.045573711E-1,-1.910279751E0
9.939857813E0,-1.170010567E0,5.549504757E-1,-1.802505016E0
9.944842240E0,-1.091458559E0,5.634772778E-1,-1.580633640E0
9.949826667E0,-1.138890266E0,6.780574322E-1,-1.369031906E0
9.954811094E0,-1.160169959E0,7.503437996E-1,-1.167611122E0
9.959795521E0,-1.208537340E0,7.516174316E-1,-9.954166412E-1
9.964779948E0,-1.246259451E0,6.961724758E-1,-8.236274719E-1
9.969764375E0,-1.244963050E0,6.460559368E-1,-6.234703064E-1
9.974748802E0,-1.228283644E0,5.914940834E-1,-3.758153915E-1
9.979733229E0,-1.224658608E0,5.461838245E-1,-1.236066818E-1
9.984717656E0,-1.248975039E0,4.762392044E-1,6.633377075E-2
9.989702083E0,-1.268301964E0,3.622171879E-1,2.085514069E-1
9.994686510E0,-1.292258739E0,2.615242004E-1,3.318080902E-1
9.999670938E0,-1.307401657E0,1.549117565E-1,4.935894012E-1
1.000465537E1,-1.299744964E0,7.088398933E-2,5.886907578E-1
1.000963979E1,-1.269221783E0,-3.362131119E-2,7.128276825E-1
1.001462422E1,-1.273166895E0,-1.298859119E-1,7.607316971E-1
1.001960865E1,-1.311388731E0,-2.178113461E-1,8.041906357E-1
1.002459307E1,-1.350726843E0,-2.925162315E-1,8.623266220E-1
1.002957750E1,-1.401064634E0,-3.541632891E-1,9.638595581E-1
